playerId,avatarFile,choiceLabel,actionLabel,actionRound,sliderID,sliderText,sliderLabels,sliderMin,sliderMax,bufferLoop.thisRepN,bufferLoop.thisTrialN,bufferLoop.thisN,bufferLoop.thisIndex,trials.thisRepN,trials.thisTrialN,trials.thisN,trials.thisIndex,sbLoop.thisRepN,sbLoop.thisTrialN,sbLoop.thisN,sbLoop.thisIndex,sliders_1.thisRepN,sliders_1.thisTrialN,sliders_1.thisN,sliders_1.thisIndex,cB_1.started,cB_1.stopped,textWelcome.started,textWelcome.stopped,keyWelcome.keys,keyWelcome.started,keyWelcome.stopped,out_0.keys,out_0.rt,out_0.started,out_0.stopped,cB_2.started,cB_2.stopped,textInstructions.started,textInstructions.stopped,keyInstructions.keys,keyInstructions.started,keyInstructions.stopped,out_1.keys,out_1.rt,out_1.started,out_1.stopped,cB_3.started,cB_3.stopped,textServer.started,textServer.stopped,keyServer.keys,keyServer.started,keyServer.stopped,out_2.keys,out_2.rt,out_2.started,out_2.stopped,cB_4.started,cB_4.stopped,text_1.started,text_1.stopped,text_2.started,text_2.stopped,text_3.started,text_3.stopped,text_4.started,text_4.stopped,cB_5.started,cB_5.stopped,idle.started,idle.stopped,idle_2.started,idle_2.stopped,idle_3.started,idle_3.stopped,idle_4.started,idle_4.stopped,idle_5.started,idle_5.stopped,idle_6.started,idle_6.stopped,idle_7.started,idle_7.stopped,ilde_8.started,ilde_8.stopped,idle_9.started,idle_9.stopped,idle_10.started,idle_10.stopped,idle_11.started,idle_11.stopped,idle_12.started,idle_12.stopped,cB_6.started,cB_6.stopped,sBInstructions.started,sBInstructions.stopped,keySbInstructions.keys,keySbInstructions.started,keySbInstructions.stopped,out_sb.keys,out_sb.rt,out_sb.started,out_sb.stopped,cB_8.started,cB_8.stopped,text.started,text.stopped,imagesbRnd.started,imagesbRnd.stopped,Slider.response,Slider.rt,Slider.history,Slider.started,Slider.stopped,cB_9.started,cB_9.stopped,cbFb.started,cbFb.stopped,textFb.started,textFb.stopped,out_Fb.keys,out_Fb.started,out_Fb.stopped,cbBuf.started,cbBuf.stopped,fixCross.started,fixCross.stopped,cB_11.started,cB_11.stopped,rating.response,rating.rt,rating.started,rating.stopped,participant,session,date,expName,psychopyVersion,frameRate,
,,,,,,,,,,,,,,,,,,,,,,,,,,8.104851600015536,None,8.104851600015536,None,None,None,None,,,,,,,,,,,,,,,,,,,,,,,,,,,,,,,,,,,,,,,,,,,,,,,,,,,,,,,,,,,,,,,,,,,,,,,,,,,,,,,,,,,,,,,,,,,,,,,,,,,,,,,,,001,2020_Feb_24_1113,so_be_u_00,3.2.4,59.085207363752055,
,,,,,,,,,,,,,,,,,,,,,,,,,,,,,,,,,1,1.5195577000267804,8.104851600015536,None,,,,,,,,,,,,,,,,,,,,,,,,,,,,,,,,,,,,,,,,,,,,,,,,,,,,,,,,,,,,,,,,,,,,,,,,,,,,,,,,,,,,,,,,,,,,,,,,,,,,,001,2020_Feb_24_1113,so_be_u_00,3.2.4,59.085207363752055,
,,,,,,,,,,,,,,,,,,,,,,,,,,,,,,,,,,,,,9.64016139996238,None,9.64016139996238,None,None,None,None,,,,,,,,,,,,,,,,,,,,,,,,,,,,,,,,,,,,,,,,,,,,,,,,,,,,,,,,,,,,,,,,,,,,,,,,,,,,,,,,,,,,,,,,,,,,,,001,2020_Feb_24_1113,so_be_u_00,3.2.4,59.085207363752055,
,,,,,,,,,,,,,,,,,,,,,,,,,,,,,,,,,,,,,,,,,,,,1,0.3239165999693796,9.64016139996238,None,,,,,,,,,,,,,,,,,,,,,,,,,,,,,,,,,,,,,,,,,,,,,,,,,,,,,,,,,,,,,,,,,,,,,,,,,,,,,,,,,,,,,,,,,,001,2020_Feb_24_1113,so_be_u_00,3.2.4,59.085207363752055,
,,,,,,,,,,,,,,,,,,,,,,,,,,,,,,,,,,,,,,,,,,,,,,,,9.981077799980994,None,9.981077799980994,None,None,None,None,,,,,,,,,,,,,,,,,,,,,,,,,,,,,,,,,,,,,,,,,,,,,,,,,,,,,,,,,,,,,,,,,,,,,,,,,,,,,,,,,,,001,2020_Feb_24_1113,so_be_u_00,3.2.4,59.085207363752055,
,,,,,,,,,,,,,,,,,,,,,,,,,,,,,,,,,,,,,,,,,,,,,,,,,,,,,,,1,0.309126699983608,9.981077799980994,None,,,,,,,,,,,,,,,,,,,,,,,,,,,,,,,,,,,,,,,,,,,,,,,,,,,,,,,,,,,,,,,,,,,,,,,,,,,,,,,001,2020_Feb_24_1113,so_be_u_00,3.2.4,59.085207363752055,
,,,,,,,,,,0,0,0,0,,,,,,,,,,,,,,,,,,,,,,,,,,,,,,,,,,,,,,,,,,,,,,10.306225800013635,None,10.306225800013635,11.313687399961054,11.279831899970304,11.791017799987458,11.791017799987458,12.30606179998722,12.289142399968114,12.79959939996479,,,,,,,,,,,,,,,,,,,,,,,,,,,,,,,,,,,,,,,,,,,,,,,,,,,,,,,,,,,,,,,,,,,,,001,2020_Feb_24_1113,so_be_u_00,3.2.4,59.085207363752055,
,,,,,,,,,,,,,,,,,,,,,,,,,,,,,,,,,,,,,,,,,,,,,,,,,,,,,,,,,,,,,,,,,,,,,12.81655689998297,None,12.989035099977627,13.294192400004249,13.294192400004249,13.498975399998017,13.498975399998017,13.600777300016489,13.600777300016489,13.738988499972038,13.738988499972038,13.890714399982244,13.890714399982244,14.04430800001137,14.04430800001137,14.14648210001178,14.14648210001178,14.643836200004444,14.643836200004444,15.155287400004454,15.138589399983175,15.64965849998407,15.64965849998407,16.161527999967802,16.144522099988535,16.298759699973743,16.808984000002965,None,16.979249199968763,None,None,None,None,,,,,,,,,,,,,,,,,,,,,,,,,,,,,,,,,,,,001,2020_Feb_24_1113,so_be_u_00,3.2.4,59.085207363752055,
,,,,,,,,,,,,,,,,,,,,,,,,,,,,,,,,,,,,,,,,,,,,,,,,,,,,,,,,,,,,,,,,,,,,,,,,,,,,,,,,,,,,,,,,,,,,,,,,,,,,,,1,1.040988799999468,16.808984000002965,None,,,,,,,,,,,,,,,,,,,,,,,,,,,,,,,,001,2020_Feb_24_1113,so_be_u_00,3.2.4,59.085207363752055,
Lukas,images/avatar2.jpg,keep the investment,0,1,,,,,,,,,,0,0,0,5,0,0,0,17,,,,,,,,,,,,,,,,,,,,,,,,,,,,,,,,,,,,,,,,,,,,,,,,,,,,,,,,,,,,,,,,,,,,,,,,,,,,,,,,,,,,,18.003692300000694,None,18.003692300000694,None,18.003692300000694,None,5,0.603,"[('5', 0.0), ('5', 0.603)]",0.004906300047878176,None,18.61577400000533,None,19.144389099965338,None,19.144389099965338,None,None,19.144389099965338,None,21.12042459996883,None,21.29041790001793,21.803402099991217,,,,,,,,001,2020_Feb_24_1113,so_be_u_00,3.2.4,59.085207363752055,
Paul,images/avatar1.jpg,reciprocate,1,1,,,,,,,,,,0,0,0,5,0,1,1,5,,,,,,,,,,,,,,,,,,,,,,,,,,,,,,,,,,,,,,,,,,,,,,,,,,,,,,,,,,,,,,,,,,,,,,,,,,,,,,,,,,,,,22.12775420001708,None,22.12775420001708,None,22.12775420001708,None,5,0.481,"[('5', 0.0), ('5', 0.481)]",0.004709500004537404,None,22.62178839999251,None,23.149514099990483,None,23.149514099990483,None,None,23.149514099990483,None,25.125909299997147,None,25.296545399993192,25.80684430000838,,,,,,,,001,2020_Feb_24_1113,so_be_u_00,3.2.4,59.085207363752055,
Lukas,images/avatar2.jpg,reciprocate,1,1,,,,,,,,,,0,0,0,5,0,2,2,9,,,,,,,,,,,,,,,,,,,,,,,,,,,,,,,,,,,,,,,,,,,,,,,,,,,,,,,,,,,,,,,,,,,,,,,,,,,,,,,,,,,,,26.06353499996476,None,26.06353499996476,None,26.06353499996476,None,5,0.6,"[('5', 0.0), ('5', 0.6)]",0.0009299999801442027,None,26.676162799994927,None,27.192803199985065,None,27.192803199985065,None,None,27.192803199985065,None,29.184161200013477,None,29.353228499996476,29.866282399976626,,,,,,,,001,2020_Feb_24_1113,so_be_u_00,3.2.4,59.085207363752055,
Paul,images/avatar1.jpg,reciprocate,1,1,,,,,,,,,,0,0,0,5,0,3,3,4,,,,,,,,,,,,,,,,,,,,,,,,,,,,,,,,,,,,,,,,,,,,,,,,,,,,,,,,,,,,,,,,,,,,,,,,,,,,,,,,,,,,,30.154695599980187,None,30.154695599980187,None,30.154695599980187,None,5,0.808,"[('5', 0.0), ('5', 0.808)]",0.008528999984264374,None,30.971865999978036,None,31.49929529998917,None,31.49929529998917,None,None,31.49929529998917,None,33.47656229999848,None,33.648504099983256,34.15791010000976,,,,,,,,001,2020_Feb_24_1113,so_be_u_00,3.2.4,59.085207363752055,
Paul,images/avatar1.jpg,reciprocate,1,1,,,,,,,,,,0,0,0,5,0,4,4,2,,,,,,,,,,,,,,,,,,,,,,,,,,,,,,,,,,,,,,,,,,,,,,,,,,,,,,,,,,,,,,,,,,,,,,,,,,,,,,,,,,,,,34.432136399962474,None,34.432136399962474,None,34.432136399962474,None,5,0.75,"[('5', 0.0), ('5', 0.75)]",0.014897799992468208,None,35.1961605999968,None,35.70758220000425,None,35.70758220000425,None,None,35.70758220000425,None,37.69896239996888,None,37.87019759998657,38.38257389998762,,,,,,,,001,2020_Feb_24_1113,so_be_u_00,3.2.4,59.085207363752055,
Paul,images/avatar1.jpg,reciprocate,1,1,,,,,,,,,,0,0,0,5,0,5,5,3,,,,,,,,,,,,,,,,,,,,,,,,,,,,,,,,,,,,,,,,,,,,,,,,,,,,,,,,,,,,,,,,,,,,,,,,,,,,,,,,,,,,,38.655642799974885,None,38.655642799974885,None,38.655642799974885,None,5,0.515,"[('5', 0.0), ('5', 0.515)]",0.0008215499692596495,None,39.18335860001389,None,39.69367229996715,None,39.69367229996715,None,None,39.69367229996715,None,41.68470330000855,None,41.855975300015416,42.36624880001182,,,,,,,,001,2020_Feb_24_1113,so_be_u_00,3.2.4,59.085207363752055,
Lukas,images/avatar2.jpg,reciprocate,1,1,,,,,,,,,,0,0,0,5,0,6,6,10,,,,,,,,,,,,,,,,,,,,,,,,,,,,,,,,,,,,,,,,,,,,,,,,,,,,,,,,,,,,,,,,,,,,,,,,,,,,,,,,,,,,,42.624440899991896,None,42.624440899991896,None,42.624440899991896,None,5,0.461,"[('5', 0.0), ('5', 0.461)]",0.016734450007788837,None,43.10060299996985,None,43.62836520001292,None,43.62836520001292,None,None,43.62836520001292,None,45.603785199986305,None,45.77420159999747,46.28473879996454,,,,,,,,001,2020_Feb_24_1113,so_be_u_00,3.2.4,59.085207363752055,
Paul,images/avatar1.jpg,keep the investment,0,1,,,,,,,,,,0,0,0,5,0,7,7,6,,,,,,,,,,,,,,,,,,,,,,,,,,,,,,,,,,,,,,,,,,,,,,,,,,,,,,,,,,,,,,,,,,,,,,,,,,,,,,,,,,,,,46.57430859998567,None,46.57430859998567,None,46.57430859998567,None,5,0.964,"[('5', 0.0), ('5', 0.964)]",0.01052990002790466,None,47.54513699997915,None,48.070728999970015,None,48.070728999970015,None,None,48.070728999970015,None,50.04842419998022,None,50.218601699976716,50.730950800003484,,,,,,,,001,2020_Feb_24_1113,so_be_u_00,3.2.4,59.085207363752055,
Lukas,images/avatar2.jpg,keep the investment,0,1,,,,,,,,,,0,0,0,5,0,8,8,16,,,,,,,,,,,,,,,,,,,,,,,,,,,,,,,,,,,,,,,,,,,,,,,,,,,,,,,,,,,,,,,,,,,,,,,,,,,,,,,,,,,,,50.98598800000036,None,50.98598800000036,None,50.98598800000036,None,5,0.503,"[('5', 0.0), ('5', 0.502)]",0.00933720002649352,None,51.49688419996528,None,52.02675289998297,None,52.02675289998297,None,None,52.02675289998297,None,54.00201250001555,None,54.17312120000133,54.68438489997061,,,,,,,,001,2020_Feb_24_1113,so_be_u_00,3.2.4,59.085207363752055,
Lukas,images/avatar2.jpg,keep the investment,0,1,,,,,,,,,,0,0,0,5,0,9,9,15,,,,,,,,,,,,,,,,,,,,,,,,,,,,,,,,,,,,,,,,,,,,,,,,,,,,,,,,,,,,,,,,,,,,,,,,,,,,,,,,,,,,,54.92240999999922,None,54.92240999999922,None,54.92240999999922,None,5,0.567,"[('5', 0.0), ('5', 0.567)]",0.001272750028874725,None,55.50177530001383,None,56.01259060000302,None,56.01259060000302,None,None,56.01259060000302,None,58.00467569998,None,58.17675809998764,58.686348099960014,,,,,,,,001,2020_Feb_24_1113,so_be_u_00,3.2.4,59.085207363752055,
Lukas,images/avatar2.jpg,keep the investment,0,1,,,,,,,,,,0,0,0,5,0,10,10,12,,,,,,,,,,,,,,,,,,,,,,,,,,,,,,,,,,,,,,,,,,,,,,,,,,,,,,,,,,,,,,,,,,,,,,,,,,,,,,,,,,,,,58.92554999998538,None,58.92554999998538,None,58.92554999998538,None,5,0.854,"[('5', 0.0), ('5', 0.854)]",0.001802049926482141,None,59.792955600016285,None,60.301900399965234,None,60.301900399965234,None,None,60.301900399965234,None,62.31014650000725,None,62.47994290001225,62.99204009998357,,,,,,,,001,2020_Feb_24_1113,so_be_u_00,3.2.4,59.085207363752055,
Paul,images/avatar1.jpg,keep the investment,0,1,,,,,,,,,,0,0,0,5,0,11,11,7,,,,,,,,,,,,,,,,,,,,,,,,,,,,,,,,,,,,,,,,,,,,,,,,,,,,,,,,,,,,,,,,,,,,,,,,,,,,,,,,,,,,,63.29744880000362,None,63.29744880000362,None,63.29744880000362,None,5,0.5,"[('5', 0.0), ('5', 0.5)]",0.007386499957647175,None,63.80852640001103,None,64.33553869999014,None,64.33553869999014,None,None,64.33553869999014,None,66.3169761999743,None,66.49035839998396,67.00087579997489,,,,,,,,001,2020_Feb_24_1113,so_be_u_00,3.2.4,59.085207363752055,
Paul,images/avatar1.jpg,keep the investment,0,1,,,,,,,,,,0,0,0,5,0,12,12,8,,,,,,,,,,,,,,,,,,,,,,,,,,,,,,,,,,,,,,,,,,,,,,,,,,,,,,,,,,,,,,,,,,,,,,,,,,,,,,,,,,,,,67.27623560000211,None,67.27623560000211,None,67.27623560000211,None,5,0.475,"[('5', 0.0), ('5', 0.475)]",0.015428699960466474,None,67.76532790000783,None,68.2793869000161,None,68.2793869000161,None,None,68.2793869000161,None,70.27368699997896,None,70.44287389999954,70.95671329996549,,,,,,,,001,2020_Feb_24_1113,so_be_u_00,3.2.4,59.085207363752055,
Lukas,images/avatar2.jpg,keep the investment,0,1,,,,,,,,,,0,0,0,5,0,13,13,18,,,,,,,,,,,,,,,,,,,,,,,,,,,,,,,,,,,,,,,,,,,,,,,,,,,,,,,,,,,,,,,,,,,,,,,,,,,,,,,,,,,,,71.211364399991,None,71.211364399991,None,71.211364399991,None,5,0.587,"[('5', 0.0), ('5', 0.587)]",0.00841420004144311,None,71.80674299999373,None,72.33579410001403,None,72.33579410001403,None,None,72.33579410001403,None,74.31100159999914,None,74.48120589996688,74.9934479999938,,,,,,,,001,2020_Feb_24_1113,so_be_u_00,3.2.4,59.085207363752055,
Lukas,images/avatar2.jpg,keep the investment,0,1,,,,,,,,,,0,0,0,5,0,14,14,13,,,,,,,,,,,,,,,,,,,,,,,,,,,,,,,,,,,,,,,,,,,,,,,,,,,,,,,,,,,,,,,,,,,,,,,,,,,,,,,,,,,,,75.23265259998152,None,75.23265259998152,None,75.23265259998152,None,5,9.32,"[('5', 0.0), ('5', 9.319)]",0.0023028499563224614,None,84.56349530001171,None,85.07484600000316,None,85.07484600000316,None,None,85.07484600000316,None,87.06825099996058,None,87.2366046999814,87.7474346999661,,,,,,,,001,2020_Feb_24_1113,so_be_u_00,3.2.4,59.085207363752055,
Lukas,images/avatar2.jpg,keep the investment,0,1,,,,,,,,,,0,0,0,5,0,15,15,14,,,,,,,,,,,,,,,,,,,,,,,,,,,,,,,,,,,,,,,,,,,,,,,,,,,,,,,,,,,,,,,,,,,,,,,,,,,,,,,,,,,,,87.99166579998564,None,87.99166579998564,None,87.99166579998564,None,5,4.627,"[('5', 0.0), ('5', 4.627)]",0.009342600009404123,None,92.63400329998694,None,93.14430300000822,None,93.14430300000822,None,None,93.14430300000822,None,95.13646239996888,None,95.30677530000685,95.82047829998191,,,,,,,,001,2020_Feb_24_1113,so_be_u_00,3.2.4,59.085207363752055,
Paul,images/avatar1.jpg,reciprocate,1,1,,,,,,,,,,0,0,0,5,0,16,16,1,,,,,,,,,,,,,,,,,,,,,,,,,,,,,,,,,,,,,,,,,,,,,,,,,,,,,,,,,,,,,,,,,,,,,,,,,,,,,,,,,,,,,96.1611085999757,None,96.1611085999757,None,96.1611085999757,None,5,0.897,"[('5', 0.0), ('5', 0.897)]",0.011093950015492737,None,97.06529160001082,None,97.59318029996939,None,97.59318029996939,None,None,97.59318029996939,None,99.56939009996131,None,99.73978790000547,100.25045870000031,,,,,,,,001,2020_Feb_24_1113,so_be_u_00,3.2.4,59.085207363752055,
Lukas,images/avatar2.jpg,reciprocate,1,1,,,,,,,,,,0,0,0,5,0,17,17,11,,,,,,,,,,,,,,,,,,,,,,,,,,,,,,,,,,,,,,,,,,,,,,,,,,,,,,,,,,,,,,,,,,,,,,,,,,,,,,,,,,,,,100.50905270001385,None,100.50905270001385,None,100.50905270001385,None,5,0.648,"[('5', 0.0), ('5', 0.648)]",0.015264550049323589,None,101.17144910001662,None,101.68840559996897,None,101.68840559996897,None,None,101.68840559996897,None,103.67619919998106,None,103.84887849999359,104.36028239998268,,,,,,,,001,2020_Feb_24_1113,so_be_u_00,3.2.4,59.085207363752055,
Paul,images/avatar1.jpg,reciprocate,1,1,,,,,,,,,,0,0,0,5,0,18,18,0,,,,,,,,,,,,,,,,,,,,,,,,,,,,,,,,,,,,,,,,,,,,,,,,,,,,,,,,,,,,,,,,,,,,,,,,,,,,,,,,,,,,,104.64986649999628,None,104.64986649999628,None,104.64986649999628,None,5,0.773,"[('5', 0.0), ('5', 0.773)]",0.007432999962475151,None,105.43447390000802,None,105.96381939999992,None,105.96381939999992,None,None,105.96381939999992,None,107.9395710999961,None,108.11162430001423,108.62240960000781,,,,,,,,001,2020_Feb_24_1113,so_be_u_00,3.2.4,59.085207363752055,
Paul,images/avatar1.jpg,reciprocate,1,1,5,How do you feel?,"negative, positive",1,7,,,,,0,0,0,5,,,,,0,0,0,4,,,,,,,,,,,,,,,,,,,,,,,,,,,,,,,,,,,,,,,,,,,,,,,,,,,,,,,,,,,,,,,,,,,,,,,,,,,,,,,,,,,,,,,,,,,,,,,,,,,,,,,,,108.94528079999145,None,n,14.805,0.015071399975568056,None,,001,2020_Feb_24_1113,so_be_u_00,3.2.4,59.085207363752055,
Paul,images/avatar1.jpg,reciprocate,1,1,6,How activated are you right now?,"low, high",1,7,,,,,0,0,0,5,,,,,0,1,1,5,,,,,,,,,,,,,,,,,,,,,,,,,,,,,,,,,,,,,,,,,,,,,,,,,,,,,,,,,,,,,,,,,,,,,,,,,,,,,,,,,,,,,,,,,,,,,,,,,,,,,,,,,123.79718429996865,None, ,3.991,0.005991550046019256,None,,001,2020_Feb_24_1113,so_be_u_00,3.2.4,59.085207363752055,
Paul,images/avatar1.jpg,reciprocate,1,1,1,How much do you like Paul?,"not at all, very much",1,7,,,,,0,0,0,5,,,,,0,2,2,0,,,,,,,,,,,,,,,,,,,,,,,,,,,,,,,,,,,,,,,,,,,,,,,,,,,,,,,,,,,,,,,,,,,,,,,,,,,,,,,,,,,,,,,,,,,,,,,,,,,,,,,,,127.88309299998218,None,m,4.899,0.012838250084314495,None,,001,2020_Feb_24_1113,so_be_u_00,3.2.4,59.085207363752055,
Paul,images/avatar1.jpg,reciprocate,1,1,2,How much do you want to continue playing with Paul?,"not at all, very much",1,7,,,,,0,0,0,5,,,,,0,3,3,1,,,,,,,,,,,,,,,,,,,,,,,,,,,,,,,,,,,,,,,,,,,,,,,,,,,,,,,,,,,,,,,,,,,,,,,,,,,,,,,,,,,,,,,,,,,,,,,,,,,,,,,,,132.86301590001676,None,m,1.931,0.012415149947628379,None,,001,2020_Feb_24_1113,so_be_u_00,3.2.4,59.085207363752055,
