playerId,avatarFile,choiceLabel,actionLabel,actionRound,sliderID,sliderText,sliderMin,sliderMax,sliderChoices,bufferLoop.thisRepN,bufferLoop.thisTrialN,bufferLoop.thisN,bufferLoop.thisIndex,trials.thisRepN,trials.thisTrialN,trials.thisN,trials.thisIndex,sbLoop.thisRepN,sbLoop.thisTrialN,sbLoop.thisN,sbLoop.thisIndex,sliders_1.thisRepN,sliders_1.thisTrialN,sliders_1.thisN,sliders_1.thisIndex,trials_2.thisRepN,trials_2.thisTrialN,trials_2.thisN,trials_2.thisIndex,cB_1.started,cB_1.stopped,textWelcome.started,textWelcome.stopped,keyWelcome.keys,keyWelcome.rt,keyWelcome.started,keyWelcome.stopped,out_0.keys,out_0.started,out_0.stopped,cB_2.started,cB_2.stopped,textInstructions.started,textInstructions.stopped,keyInstructions.keys,keyInstructions.started,keyInstructions.stopped,out_1.keys,out_1.rt,out_1.started,out_1.stopped,cB_3.started,cB_3.stopped,textServer.started,textServer.stopped,keyServer.keys,keyServer.started,keyServer.stopped,out_2.keys,out_2.rt,out_2.started,out_2.stopped,cB_4.started,cB_4.stopped,text_1.started,text_1.stopped,text_2.started,text_2.stopped,text_3.started,text_3.stopped,text_4.started,text_4.stopped,cB_5.started,cB_5.stopped,idle.started,idle.stopped,idle_2.started,idle_2.stopped,idle_3.started,idle_3.stopped,idle_4.started,idle_4.stopped,idle_5.started,idle_5.stopped,idle_6.started,idle_6.stopped,idle_7.started,idle_7.stopped,ilde_8.started,ilde_8.stopped,idle_9.started,idle_9.stopped,idle_10.started,idle_10.stopped,idle_11.started,idle_11.stopped,idle_12.started,idle_12.stopped,cB_6.started,cB_6.stopped,sBInstructions.started,sBInstructions.stopped,keySbInstructions.keys,keySbInstructions.started,keySbInstructions.stopped,out_sb.keys,out_sb.rt,out_sb.started,out_sb.stopped,cB_8.started,cB_8.stopped,text.started,text.stopped,imagesbRnd.started,imagesbRnd.stopped,Slider.response,Slider.rt,Slider.history,Slider.started,Slider.stopped,cB_9.started,cB_9.stopped,totalMoney,cbFb.started,cbFb.stopped,textFb.started,textFb.stopped,out_Fb.keys,out_Fb.started,out_Fb.stopped,cbBuf.started,cbBuf.stopped,fixCross.started,fixCross.stopped,cB_11.started,cB_11.stopped,rating.response,rating.rt,rating.started,rating.stopped,participant,session,date,expName,psychopyVersion,frameRate,
,,,,,,,,,,,,,,,,,,,,,,,,,,,,,,6.2976169000030495,None,6.2976169000030495,None,1,1.1949604999972507,8.27151250001043,None,,,,,,,,,,,,,,,,,,,,,,,,,,,,,,,,,,,,,,,,,,,,,,,,,,,,,,,,,,,,,,,,,,,,,,,,,,,,,,,,,,,,,,,,,,,,,,,,,,,,,,,,,001,2020_Feb_24_1216,so_be_u_00,3.2.4,59.573454073540546,
,,,,,,,,,,,,,,,,,,,,,,,,,,,,,,,,,,,,,,None,6.2976169000030495,None,,,,,,,,,,,,,,,,,,,,,,,,,,,,,,,,,,,,,,,,,,,,,,,,,,,,,,,,,,,,,,,,,,,,,,,,,,,,,,,,,,,,,,,,,,,,,,,,,,,,,,001,2020_Feb_24_1216,so_be_u_00,3.2.4,59.573454073540546,
,,,,,,,,,,,,,,,,,,,,,,,,,,,,,,,,,,,,,,,,,9.483044900000095,None,9.483044900000095,None,None,None,None,,,,,,,,,,,,,,,,,,,,,,,,,,,,,,,,,,,,,,,,,,,,,,,,,,,,,,,,,,,,,,,,,,,,,,,,,,,,,,,,,,,,,,,,,,,,,,,001,2020_Feb_24_1216,so_be_u_00,3.2.4,59.573454073540546,
,,,,,,,,,,,,,,,,,,,,,,,,,,,,,,,,,,,,,,,,,,,,,,,,1,0.34228890005033463,9.483044900000095,None,,,,,,,,,,,,,,,,,,,,,,,,,,,,,,,,,,,,,,,,,,,,,,,,,,,,,,,,,,,,,,,,,,,,,,,,,,,,,,,,,,,,,,,,,,,001,2020_Feb_24_1216,so_be_u_00,3.2.4,59.573454073540546,
,,,,,,,,,,,,,,,,,,,,,,,,,,,,,,,,,,,,,,,,,,,,,,,,,,,,9.841898199985735,None,9.841898199985735,None,None,None,None,,,,,,,,,,,,,,,,,,,,,,,,,,,,,,,,,,,,,,,,,,,,,,,,,,,,,,,,,,,,,,,,,,,,,,,,,,,,,,,,,,,,001,2020_Feb_24_1216,so_be_u_00,3.2.4,59.573454073540546,
,,,,,,,,,,,,,,,,,,,,,,,,,,,,,,,,,,,,,,,,,,,,,,,,,,,,,,,,,,,1,0.3081833000178449,9.841898199985735,None,,,,,,,,,,,,,,,,,,,,,,,,,,,,,,,,,,,,,,,,,,,,,,,,,,,,,,,,,,,,,,,,,,,,,,,,,,,,,,,,001,2020_Feb_24_1216,so_be_u_00,3.2.4,59.573454073540546,
,,,,,,,,,,0,0,0,0,,,,,,,,,,,,,,,,,,,,,,,,,,,,,,,,,,,,,,,,,,,,,,,,,,10.166724700015038,None,10.166724700015038,11.172336400020868,11.138386100006755,11.649585900013335,11.649585900013335,12.160439700004645,12.14345630002208,12.657345200015698,,,,,,,,,,,,,,,,,,,,,,,,,,,,,,,,,,,,,,,,,,,,,,,,,,,,,,,,,,,,,,,,,,,,,,001,2020_Feb_24_1216,so_be_u_00,3.2.4,59.573454073540546,
,,,,,,,,,,,,,,,,,,,,,,,,,,,,,,,,,,,,,,,,,,,,,,,,,,,,,,,,,,,,,,,,,,,,,,,,,12.674611299997196,None,12.847376300022006,13.152915899991058,13.152915899991058,13.35749590001069,13.35749590001069,13.442268999991938,13.442268999991938,13.597009100019932,13.597009100019932,13.748509900004137,13.748509900004137,13.901542800012976,13.901542800012976,14.004488300008234,14.004488300008234,14.49991209997097,14.49991209997097,15.011794599995483,14.993065099988598,15.503500199993141,15.503500199993141,16.013572000025306,15.996776100015268,16.149994599982165,16.680058000027202,None,16.849660000007134,None,None,None,None,,,,,,,,,,,,,,,,,,,,,,,,,,,,,,,,,,,,,001,2020_Feb_24_1216,so_be_u_00,3.2.4,59.573454073540546,
,,,,,,,,,,,,,,,,,,,,,,,,,,,,,,,,,,,,,,,,,,,,,,,,,,,,,,,,,,,,,,,,,,,,,,,,,,,,,,,,,,,,,,,,,,,,,,,,,,,,,,,,,,1,0.7337654000148177,16.680058000027202,None,,,,,,,,,,,,,,,,,,,,,,,,,,,,,,,,,001,2020_Feb_24_1216,so_be_u_00,3.2.4,59.573454073540546,
Paul,images/avatar1.jpg,reciprocate,1,1,,,,,,,,,,0,0,0,17,0,0,0,0,,,,,,,,,,,,,,,,,,,,,,,,,,,,,,,,,,,,,,,,,,,,,,,,,,,,,,,,,,,,,,,,,,,,,,,,,,,,,,,,,,,,,,,,,17.61605289997533,None,17.61605289997533,None,17.61605289997533,None,6,0.867,"[('5', 0.0), ('6', 0.541), ('6', 0.867)]",0.011160279915202409,None,18.486395900021307,None,6,19.014270299987402,None,19.014270299987402,None,None,19.014270299987402,None,20.997558299975935,None,21.16739449999295,21.678677099989727,,,,,,,,001,2020_Feb_24_1216,so_be_u_00,3.2.4,59.573454073540546,
Lukas,images/avatar2.jpg,keep the investment,0,1,1,How much do you like Paul?,not at all,very much,1 2 3 4 5 6 7,,,,,0,0,0,17,,,,,0,0,0,0,,,,,,,,,,,,,,,,,,,,,,,,,,,,,,,,,,,,,,,,,,,,,,,,,,,,,,,,,,,,,,,,,,,,,,,,,,,,,,,,,,,,,,,,,,,,,,,,,,,,,,,,,,,,,,21.96651950001251,None,5,1.954,0.010811820044182241,None,,001,2020_Feb_24_1216,so_be_u_00,3.2.4,59.573454073540546,
Lukas,images/avatar2.jpg,keep the investment,0,1,2,How much do you want to continue playing with Paul?,not at all,very much,1 2 3 4 5 6 7,,,,,0,0,0,17,,,,,0,1,1,1,,,,,,,,,,,,,,,,,,,,,,,,,,,,,,,,,,,,,,,,,,,,,,,,,,,,,,,,,,,,,,,,,,,,,,,,,,,,,,,,,,,,,,,,,,,,,,,,,,,,,,,,,,,,,,23.963345199998002,None,5,0.868,0.015056539967190474,None,,001,2020_Feb_24_1216,so_be_u_00,3.2.4,59.573454073540546,
Lukas,images/avatar2.jpg,keep the investment,0,1,3,How much do you like Lukas?,not at all,very much,1 2 3 4 5 6 7,,,,,0,0,0,17,,,,,0,2,2,2,,,,,,,,,,,,,,,,,,,,,,,,,,,,,,,,,,,,,,,,,,,,,,,,,,,,,,,,,,,,,,,,,,,,,,,,,,,,,,,,,,,,,,,,,,,,,,,,,,,,,,,,,,,,,,24.879140799981542,None,3,1.706,0.00028745998861268163,None,,001,2020_Feb_24_1216,so_be_u_00,3.2.4,59.573454073540546,
Lukas,images/avatar2.jpg,keep the investment,0,1,4,How much do you want to continue playing with Lukas?,not at all,very much,1 2 3 4 5 6 7,,,,,0,0,0,17,,,,,0,3,3,3,,,,,,,,,,,,,,,,,,,,,,,,,,,,,,,,,,,,,,,,,,,,,,,,,,,,,,,,,,,,,,,,,,,,,,,,,,,,,,,,,,,,,,,,,,,,,,,,,,,,,,,,,,,,,,26.634700599999633,None,3,1.075,0.016231440007686615,None,,001,2020_Feb_24_1216,so_be_u_00,3.2.4,59.573454073540546,
Lukas,images/avatar2.jpg,keep the investment,0,1,5,How do you feel?,negative,positive,1 2 3 4 5 6 7,,,,,0,0,0,17,,,,,0,4,4,4,,,,,,,,,,,,,,,,,,,,,,,,,,,,,,,,,,,,,,,,,,,,,,,,,,,,,,,,,,,,,,,,,,,,,,,,,,,,,,,,,,,,,,,,,,,,,,,,,,,,,,,,,,,,,,27.757694599975366,None,5,2.308,0.004579060070682317,None,,001,2020_Feb_24_1216,so_be_u_00,3.2.4,59.573454073540546,
Lukas,images/avatar2.jpg,keep the investment,0,1,6,How activated are you right now?,low,high,1 2 3 4 5 6 7,,,,,0,0,0,17,,,,,0,5,5,5,,,,,,,,,,,,,,,,,,,,,,,,,,,,,,,,,,,,,,,,,,,,,,,,,,,,,,,,,,,,,,,,,,,,,,,,,,,,,,,,,,,,,,,,,,,,,,,,,,,,,,,,,,,,,,30.112009199976455,None,5,1.134,0.005813759984448552,None,,001,2020_Feb_24_1216,so_be_u_00,3.2.4,59.573454073540546,
Lukas,images/avatar2.jpg,keep the investment,0,1,,,,,,,,,,0,0,0,17,,,,,,,,,0,0,0,0,,,,,,,,,,,,,,,,,,,,,,,,,,,,,,,,,,,,,,,,,,,,,,,,,,,,,,,,,,,,,,,,,,,,,,,,,,,,,,,,,,,,,,,,,,,,31.254715999995824,None,,,,,,,,,,,,,,,,,,,,001,2020_Feb_24_1216,so_be_u_00,3.2.4,59.573454073540546,
Lukas,images/avatar2.jpg,keep the investment,0,1,,,,,,,,,,0,0,0,17,,,,,,,,,1,0,1,0,,,,,,,,,,,,,,,,,,,,,,,,,,,,,,,,,,,,,,,,,,,,,,,,,,,,,,,,,,,,,,,,,,,,,,,,,,,,,,,,,,,,,,,,,,,,31.766957000014372,None,,,,,,,,,,,,,,,,,,,,001,2020_Feb_24_1216,so_be_u_00,3.2.4,59.573454073540546,
Lukas,images/avatar2.jpg,keep the investment,0,1,,,,,,,,,,0,0,0,17,,,,,,,,,2,0,2,0,,,,,,,,,,,,,,,,,,,,,,,,,,,,,,,,,,,,,,,,,,,,,,,,,,,,,,,,,,,,,,,,,,,,,,,,,,,,,,,,,,,,,,,,,,,,32.26142220001202,None,,,,,,,,,,,,,,,,,,,,001,2020_Feb_24_1216,so_be_u_00,3.2.4,59.573454073540546,
Lukas,images/avatar2.jpg,keep the investment,0,1,,,,,,,,,,0,0,0,17,,,,,,,,,3,0,3,0,,,,,,,,,,,,,,,,,,,,,,,,,,,,,,,,,,,,,,,,,,,,,,,,,,,,,,,,,,,,,,,,,,,,,,,,,,,,,,,,,,,,,,,,,,,,32.758890500001144,None,,,,,,,,,,,,,,,,,,,,001,2020_Feb_24_1216,so_be_u_00,3.2.4,59.573454073540546,
Lukas,images/avatar2.jpg,keep the investment,0,1,,,,,,,,,,0,0,0,17,,,,,,,,,,,,,,,,,,,,,,,,,,,,,,,,,,,,,,,,,,,,,,,,,,,,,,,,,,,,,,,,,,,,,,,,,,,,,,,,,,,,,,,,,,,,,,,,,,,,,,,,,,,,,,,,,,,,,,,,,,,,,001,2020_Feb_24_1216,so_be_u_00,3.2.4,59.573454073540546,
