playerId,avatarFile,choiceLabel,actionLabel,actionRound,actionExit,sliderID,sliderText,sliderMin,sliderMax,sliderChoices,bufferLoop.thisRepN,bufferLoop.thisTrialN,bufferLoop.thisN,bufferLoop.thisIndex,trials.thisRepN,trials.thisTrialN,trials.thisN,trials.thisIndex,sbLoop.thisRepN,sbLoop.thisTrialN,sbLoop.thisN,sbLoop.thisIndex,sliders_1.thisRepN,sliders_1.thisTrialN,sliders_1.thisN,sliders_1.thisIndex,trials_2.thisRepN,trials_2.thisTrialN,trials_2.thisN,trials_2.thisIndex,cB_1.started,cB_1.stopped,textWelcome.started,textWelcome.stopped,keyWelcome.keys,keyWelcome.started,keyWelcome.stopped,out_0.keys,out_0.rt,out_0.started,out_0.stopped,cB_2.started,cB_2.stopped,textInstructions.started,textInstructions.stopped,keyInstructions.keys,keyInstructions.started,keyInstructions.stopped,out_1.keys,out_1.rt,out_1.started,out_1.stopped,cB_3.started,cB_3.stopped,textServer.started,textServer.stopped,keyServer.keys,keyServer.started,keyServer.stopped,out_2.keys,out_2.rt,out_2.started,out_2.stopped,cB_4.started,cB_4.stopped,text_1.started,text_1.stopped,text_2.started,text_2.stopped,text_3.started,text_3.stopped,text_4.started,text_4.stopped,cB_5.started,cB_5.stopped,idle.started,idle.stopped,idle_2.started,idle_2.stopped,idle_3.started,idle_3.stopped,idle_4.started,idle_4.stopped,idle_5.started,idle_5.stopped,idle_6.started,idle_6.stopped,idle_7.started,idle_7.stopped,ilde_8.started,ilde_8.stopped,idle_9.started,idle_9.stopped,idle_10.started,idle_10.stopped,idle_11.started,idle_11.stopped,idle_12.started,idle_12.stopped,cB_6.started,cB_6.stopped,sBInstructions.started,sBInstructions.stopped,keySbInstructions.keys,keySbInstructions.started,keySbInstructions.stopped,out_sb.keys,out_sb.rt,out_sb.started,out_sb.stopped,cB_8.started,cB_8.stopped,text.started,text.stopped,imagesbRnd.started,imagesbRnd.stopped,sbChoice.response,sbChoice.rt,sbChoice.history,sbChoice.started,sbChoice.stopped,cB_9.started,cB_9.stopped,totalMoney,paulMoney,lukasMoney,cbFb.started,cbFb.stopped,textFb.started,textFb.stopped,out_Fb.keys,out_Fb.started,out_Fb.stopped,cbBuf.started,cbBuf.stopped,fixCross.started,fixCross.stopped,cB_11.started,cB_11.stopped,rating.response,rating.rt,rating.started,rating.stopped,cbBuf_2.started,cbBuf_2.stopped,text_5.started,text_5.stopped,participant,session,date,expName,psychopyVersion,frameRate,
,,,,,,,,,,,,,,,,,,,,,,,,,,,,,,,5.491695399978198,None,5.491695399978198,None,None,None,None,,,,,,,,,,,,,,,,,,,,,,,,,,,,,,,,,,,,,,,,,,,,,,,,,,,,,,,,,,,,,,,,,,,,,,,,,,,,,,,,,,,,,,,,,,,,,,,,,,,,,,,,,,,,,,,,001,2020_Feb_24_1420,so_be_u_00,3.2.4,59.3908870566468,
,,,,,,,,,,,,,,,,,,,,,,,,,,,,,,,,,,,,,,1,0.6292098999838345,5.491695399978198,None,,,,,,,,,,,,,,,,,,,,,,,,,,,,,,,,,,,,,,,,,,,,,,,,,,,,,,,,,,,,,,,,,,,,,,,,,,,,,,,,,,,,,,,,,,,,,,,,,,,,,,,,,,,,001,2020_Feb_24_1420,so_be_u_00,3.2.4,59.3908870566468,
,,,,,,,,,,,,,,,,,,,,,,,,,,,,,,,,,,,,,,,,,,6.137293300009333,None,6.137293300009333,None,None,None,None,,,,,,,,,,,,,,,,,,,,,,,,,,,,,,,,,,,,,,,,,,,,,,,,,,,,,,,,,,,,,,,,,,,,,,,,,,,,,,,,,,,,,,,,,,,,,,,,,,,,,001,2020_Feb_24_1420,so_be_u_00,3.2.4,59.3908870566468,
,,,,,,,,,,,,,,,,,,,,,,,,,,,,,,,,,,,,,,,,,,,,,,,,,1,0.25677430001087487,6.137293300009333,None,,,,,,,,,,,,,,,,,,,,,,,,,,,,,,,,,,,,,,,,,,,,,,,,,,,,,,,,,,,,,,,,,,,,,,,,,,,,,,,,,,,,,,,,,,,,,,,,,001,2020_Feb_24_1420,so_be_u_00,3.2.4,59.3908870566468,
,,,,,,,,,,,,,,,,,,,,,,,,,,,,,,,,,,,,,,,,,,,,,,,,,,,,,6.409954999980982,None,6.409954999980982,None,None,None,None,,,,,,,,,,,,,,,,,,,,,,,,,,,,,,,,,,,,,,,,,,,,,,,,,,,,,,,,,,,,,,,,,,,,,,,,,,,,,,,,,,,,,,,,,,001,2020_Feb_24_1420,so_be_u_00,3.2.4,59.3908870566468,
,,,,,,,,,,,,,,,,,,,,,,,,,,,,,,,,,,,,,,,,,,,,,,,,,,,,,,,,,,,,1,0.22348829999100417,6.409954999980982,None,,,,,,,,,,,,,,,,,,,,,,,,,,,,,,,,,,,,,,,,,,,,,,,,,,,,,,,,,,,,,,,,,,,,,,,,,,,,,,,,,,,,,,001,2020_Feb_24_1420,so_be_u_00,3.2.4,59.3908870566468,
,,,,,,,,,,,0,0,0,0,,,,,,,,,,,,,,,,,,,,,,,,,,,,,,,,,,,,,,,,,,,,,,,,,,6.64954980002949,None,6.64954980002949,7.658453400013968,7.624467700021341,8.135550700011663,8.118328700016718,8.633140699996147,8.633140699996147,9.143814300012309,,,,,,,,,,,,,,,,,,,,,,,,,,,,,,,,,,,,,,,,,,,,,,,,,,,,,,,,,,,,,,,,,,,,,,,,,,,,001,2020_Feb_24_1420,so_be_u_00,3.2.4,59.3908870566468,
,,,,,,,,,,,,,,,,,,,,,,,,,,,,,,,,,,,,,,,,,,,,,,,,,,,,,,,,,,,,,,,,,,,,,,,,,,9.160793100018054,None,9.332032700011041,9.64090140000917,9.64090140000917,9.84498110000277,9.84498110000277,9.929882600030396,9.929882600030396,10.083323099999689,10.083323099999689,10.236559299984947,10.236559299984947,10.391685699985828,10.391685699985828,10.49250240001129,10.49250240001129,10.985901499981992,10.985901499981992,11.498374400020111,11.48174979997566,11.994451000005938,11.994451000005938,12.508344099973328,12.491330099990591,12.643082700029481,13.190722299972549,None,13.378247899992857,None,None,None,None,,,,,,,,,,,,,,,,,,,,,,,,,,,,,,,,,,,,,,,,,,,001,2020_Feb_24_1420,so_be_u_00,3.2.4,59.3908870566468,
,,,,,,,,,,,,,,,,,,,,,,,,,,,,,,,,,,,,,,,,,,,,,,,,,,,,,,,,,,,,,,,,,,,,,,,,,,,,,,,,,,,,,,,,,,,,,,,,,,,,,,,,,,,1,0.5295876000309363,13.190722299972549,None,,,,,,,,,,,,,,,,,,,,,,,,,,,,,,,,,,,,,,,001,2020_Feb_24_1420,so_be_u_00,3.2.4,59.3908870566468,
Paul,images/avatar1.jpg,reciprocate,1,1,enter,,,,,,,,,,0,0,0,0,0,0,0,0,,,,,,,,,,,,,,,,,,,,,,,,,,,,,,,,,,,,,,,,,,,,,,,,,,,,,,,,,,,,,,,,,,,,,,,,,,,,,,,,,,,,,,,,,13.87281750002876,None,13.87281750002876,None,13.87281750002876,None,6,0.951,"[('5', 0.0), ('6', 0.678), ('6', 0.951)]",0.010820240015164018,None,14.826862299989443,None,6,6,0,15.357239199976902,None,15.357239199976902,None,None,15.357239199976902,None,17.336329700017814,None,17.508440700010397,18.0235754000023,,,,,,,,,,,,001,2020_Feb_24_1420,so_be_u_00,3.2.4,59.3908870566468,
Paul,images/avatar1.jpg,reciprocate,1,1,enter,,,,,,,,,,0,0,0,0,1,0,1,0,,,,,,,,,,,,,,,,,,,,,,,,,,,,,,,,,,,,,,,,,,,,,,,,,,,,,,,,,,,,,,,,,,,,,,,,,,,,,,,,,,,,,,,,,18.29976580000948,None,18.29976580000948,None,18.29976580000948,None,5,0.597,"[('5', 0.0), ('5', 0.597)]",0.014317919965833426,None,18.910189100017305,None,11,11,0,19.441898700024467,None,19.441898700024467,None,None,19.441898700024467,None,21.422840800019912,None,21.593969299981836,22.10958099999698,,,,,,,,,,,,001,2020_Feb_24_1420,so_be_u_00,3.2.4,59.3908870566468,
Paul,images/avatar1.jpg,reciprocate,1,1,enter,1,How much do you like Paul?,not at all,very much,1 2 3 4 5 6 7,,,,,0,0,0,0,,,,,0,0,0,0,,,,,,,,,,,,,,,,,,,,,,,,,,,,,,,,,,,,,,,,,,,,,,,,,,,,,,,,,,,,,,,,,,,,,,,,,,,,,,,,,,,,,,,,,,,,,,,,,,,,,,,,,,,,,,,,22.368018799985293,None,5,2.016,0.016408920055255294,None,,,,,,001,2020_Feb_24_1420,so_be_u_00,3.2.4,59.3908870566468,
Paul,images/avatar1.jpg,reciprocate,1,1,enter,2,How much do you want to continue playing with Paul?,not at all,very much,1 2 3 4 5 6 7,,,,,0,0,0,0,,,,,0,1,1,1,,,,,,,,,,,,,,,,,,,,,,,,,,,,,,,,,,,,,,,,,,,,,,,,,,,,,,,,,,,,,,,,,,,,,,,,,,,,,,,,,,,,,,,,,,,,,,,,,,,,,,,,,,,,,,,,24.435007099993527,None,4,0.459,0.014178739977069199,None,,,,,,001,2020_Feb_24_1420,so_be_u_00,3.2.4,59.3908870566468,
Paul,images/avatar1.jpg,reciprocate,1,1,enter,3,How much do you like Lukas?,not at all,very much,1 2 3 4 5 6 7,,,,,0,0,0,0,,,,,0,2,2,2,,,,,,,,,,,,,,,,,,,,,,,,,,,,,,,,,,,,,,,,,,,,,,,,,,,,,,,,,,,,,,,,,,,,,,,,,,,,,,,,,,,,,,,,,,,,,,,,,,,,,,,,,,,,,,,,24.944287099991925,None,4,0.548,0.01658494002185762,None,,,,,,001,2020_Feb_24_1420,so_be_u_00,3.2.4,59.3908870566468,
Paul,images/avatar1.jpg,reciprocate,1,1,enter,4,How much do you want to continue playing with Lukas?,not at all,very much,1 2 3 4 5 6 7,,,,,0,0,0,0,,,,,0,3,3,3,,,,,,,,,,,,,,,,,,,,,,,,,,,,,,,,,,,,,,,,,,,,,,,,,,,,,,,,,,,,,,,,,,,,,,,,,,,,,,,,,,,,,,,,,,,,,,,,,,,,,,,,,,,,,,,,25.541994300030638,None,4,0.411,0.016629539954010397,None,,,,,,001,2020_Feb_24_1420,so_be_u_00,3.2.4,59.3908870566468,
Paul,images/avatar1.jpg,reciprocate,1,1,enter,5,How do you feel?,negative,positive,1 2 3 4 5 6 7,,,,,0,0,0,0,,,,,0,4,4,4,,,,,,,,,,,,,,,,,,,,,,,,,,,,,,,,,,,,,,,,,,,,,,,,,,,,,,,,,,,,,,,,,,,,,,,,,,,,,,,,,,,,,,,,,,,,,,,,,,,,,,,,,,,,,,,,26.000767800025642,None,4,0.483,0.0045862599508836865,None,,,,,,001,2020_Feb_24_1420,so_be_u_00,3.2.4,59.3908870566468,
Paul,images/avatar1.jpg,reciprocate,1,1,enter,6,How activated are you right now?,low,high,1 2 3 4 5 6 7,,,,,0,0,0,0,,,,,0,5,5,5,,,,,,,,,,,,,,,,,,,,,,,,,,,,,,,,,,,,,,,,,,,,,,,,,,,,,,,,,,,,,,,,,,,,,,,,,,,,,,,,,,,,,,,,,,,,,,,,,,,,,,,,,,,,,,,,26.528479699976742,None,4,1.678,0.006743960024323314,None,,,,,,001,2020_Feb_24_1420,so_be_u_00,3.2.4,59.3908870566468,
Paul,images/avatar1.jpg,reciprocate,1,1,enter,,,,,,,,,,0,0,0,0,,,,,,,,,0,0,0,0,,,,,,,,,,,,,,,,,,,,,,,,,,,,,,,,,,,,,,,,,,,,,,,,,,,,,,,,,,,,,,,,,,,,,,,,,,,,,,,,,,,,,,,,,,,,32.22178369999165,None,,,,,,,,,,,,,,,,,,,,,28.248469899990596,None,28.248469899990596,31.76106410002103,,001,2020_Feb_24_1420,so_be_u_00,3.2.4,59.3908870566468,
Paul,images/avatar1.jpg,reciprocate,1,1,enter,,,,,,,,,,0,0,0,0,,,,,,,,,1,0,1,0,,,,,,,,,,,,,,,,,,,,,,,,,,,,,,,,,,,,,,,,,,,,,,,,,,,,,,,,,,,,,,,,,,,,,,,,,,,,,,,,,,,,,,,,,,,,32.71948500000872,None,,,,,,,,,,,,,,,,,,,,,,,,,,001,2020_Feb_24_1420,so_be_u_00,3.2.4,59.3908870566468,
Paul,images/avatar1.jpg,reciprocate,1,1,enter,,,,,,,,,,0,0,0,0,,,,,,,,,2,0,2,0,,,,,,,,,,,,,,,,,,,,,,,,,,,,,,,,,,,,,,,,,,,,,,,,,,,,,,,,,,,,,,,,,,,,,,,,,,,,,,,,,,,,,,,,,,,,33.23530599998776,None,,,,,,,,,,,,,,,,,,,,,,,,,,001,2020_Feb_24_1420,so_be_u_00,3.2.4,59.3908870566468,
Paul,images/avatar1.jpg,reciprocate,1,1,enter,,,,,,,,,,0,0,0,0,,,,,,,,,3,0,3,0,,,,,,,,,,,,,,,,,,,,,,,,,,,,,,,,,,,,,,,,,,,,,,,,,,,,,,,,,,,,,,,,,,,,,,,,,,,,,,,,,,,,,,,,,,,,33.72727849998046,None,,,,,,,,,,,,,,,,,,,,,,,,,,001,2020_Feb_24_1420,so_be_u_00,3.2.4,59.3908870566468,
Paul,images/avatar1.jpg,reciprocate,1,1,enter,,,,,,,,,,0,0,0,0,,,,,,,,,,,,,,,,,,,,,,,,,,,,,,,,,,,,,,,,,,,,,,,,,,,,,,,,,,,,,,,,,,,,,,,,,,,,,,,,,,,,,,,,,,,,,,,,,,,,,,,,,,,,,,,,,,,,34.22254470002372,None,34.394431499997154,34.905655800015666,,,,,,,,,,,,001,2020_Feb_24_1420,so_be_u_00,3.2.4,59.3908870566468,
Paul,images/avatar1.jpg,reciprocate,1,1,enter,,,,,,,,,,1,0,1,0,0,0,0,0,,,,,,,,,,,,,,,,,,,,,,,,,,,,,,,,,,,,,,,,,,,,,,,,,,,,,,,,,,,,,,,,,,,,,,,,,,,,,,,,,,,,,,,,,35.21228560002055,None,35.21228560002055,None,35.21228560002055,None,4,1.561,"[('5', 0.0), ('4', 1.288), ('4', 1.561)]",0.005034599977079779,None,36.7834796999814,None,15,15,0,37.312289000023156,None,37.312289000023156,None,None,37.312289000023156,None,39.290207499987446,None,39.46206859999802,39.97717269998975,,,,,,,,,,,,001,2020_Feb_24_1420,so_be_u_00,3.2.4,59.3908870566468,
Paul,images/avatar1.jpg,reciprocate,1,1,enter,,,,,,,,,,1,0,1,0,1,0,1,0,,,,,,,,,,,,,,,,,,,,,,,,,,,,,,,,,,,,,,,,,,,,,,,,,,,,,,,,,,,,,,,,,,,,,,,,,,,,,,,,,,,,,,,,,40.25324950000504,None,40.25324950000504,None,40.25324950000504,None,4,1.351,"[('5', 0.0), ('4', 0.974), ('4', 1.351)]",0.01500031998148188,None,41.61694889998762,None,19,19,0,42.131891200027894,None,42.131891200027894,None,None,42.131891200027894,None,44.125709099986125,None,44.2977838999941,44.80856819998007,,,,,,,,,,,,001,2020_Feb_24_1420,so_be_u_00,3.2.4,59.3908870566468,
Paul,images/avatar1.jpg,reciprocate,1,1,enter,1,How much do you like Paul?,not at all,very much,1 2 3 4 5 6 7,,,,,1,0,1,0,,,,,0,0,0,0,,,,,,,,,,,,,,,,,,,,,,,,,,,,,,,,,,,,,,,,,,,,,,,,,,,,,,,,,,,,,,,,,,,,,,,,,,,,,,,,,,,,,,,,,,,,,,,,,,,,,,,,,,,,,,,,45.082226799975615,None,3,2.327,0.007649339968338609,None,,,,,,001,2020_Feb_24_1420,so_be_u_00,3.2.4,59.3908870566468,
Paul,images/avatar1.jpg,reciprocate,1,1,enter,2,How much do you want to continue playing with Paul?,not at all,very much,1 2 3 4 5 6 7,,,,,1,0,1,0,,,,,0,1,1,1,,,,,,,,,,,,,,,,,,,,,,,,,,,,,,,,,,,,,,,,,,,,,,,,,,,,,,,,,,,,,,,,,,,,,,,,,,,,,,,,,,,,,,,,,,,,,,,,,,,,,,,,,,,,,,,,47.453120600024704,None,5,1.06,0.01572254003258422,None,,,,,,001,2020_Feb_24_1420,so_be_u_00,3.2.4,59.3908870566468,
Paul,images/avatar1.jpg,reciprocate,1,1,enter,3,How much do you like Lukas?,not at all,very much,1 2 3 4 5 6 7,,,,,1,0,1,0,,,,,0,2,2,2,,,,,,,,,,,,,,,,,,,,,,,,,,,,,,,,,,,,,,,,,,,,,,,,,,,,,,,,,,,,,,,,,,,,,,,,,,,,,,,,,,,,,,,,,,,,,,,,,,,,,,,,,,,,,,,,48.56168839999009,None,5,1.028,0.0020053599728271365,None,,,,,,001,2020_Feb_24_1420,so_be_u_00,3.2.4,59.3908870566468,
Paul,images/avatar1.jpg,reciprocate,1,1,enter,4,How much do you want to continue playing with Lukas?,not at all,very much,1 2 3 4 5 6 7,,,,,1,0,1,0,,,,,0,3,3,3,,,,,,,,,,,,,,,,,,,,,,,,,,,,,,,,,,,,,,,,,,,,,,,,,,,,,,,,,,,,,,,,,,,,,,,,,,,,,,,,,,,,,,,,,,,,,,,,,,,,,,,,,,,,,,,,49.63851419999264,None,5,1.351,0.016410439973697066,None,,,,,,001,2020_Feb_24_1420,so_be_u_00,3.2.4,59.3908870566468,
Paul,images/avatar1.jpg,reciprocate,1,1,enter,5,How do you feel?,negative,positive,1 2 3 4 5 6 7,,,,,1,0,1,0,,,,,0,4,4,4,,,,,,,,,,,,,,,,,,,,,,,,,,,,,,,,,,,,,,,,,,,,,,,,,,,,,,,,,,,,,,,,,,,,,,,,,,,,,,,,,,,,,,,,,,,,,,,,,,,,,,,,,,,,,,,,51.03805560001638,None,5,1.22,0.005446259921882302,None,,,,,,001,2020_Feb_24_1420,so_be_u_00,3.2.4,59.3908870566468,
Paul,images/avatar1.jpg,reciprocate,1,1,enter,6,How activated are you right now?,low,high,1 2 3 4 5 6 7,,,,,1,0,1,0,,,,,0,5,5,5,,,,,,,,,,,,,,,,,,,,,,,,,,,,,,,,,,,,,,,,,,,,,,,,,,,,,,,,,,,,,,,,,,,,,,,,,,,,,,,,,,,,,,,,,,,,,,,,,,,,,,,,,,,,,,,,52.300251799984835,None,5,0.964,0.005765560024883598,None,,,,,,001,2020_Feb_24_1420,so_be_u_00,3.2.4,59.3908870566468,
Paul,images/avatar1.jpg,reciprocate,1,1,enter,,,,,,,,,,1,0,1,0,,,,,,,,,0,0,0,0,,,,,,,,,,,,,,,,,,,,,,,,,,,,,,,,,,,,,,,,,,,,,,,,,,,,,,,,,,,,,,,,,,,,,,,,,,,,,,,,,,,,,,,,,,,,57.289491200004704,None,,,,,,,,,,,,,,,,,,,,,53.28947740001604,None,53.28947740001604,56.792391400027554,,001,2020_Feb_24_1420,so_be_u_00,3.2.4,59.3908870566468,
Paul,images/avatar1.jpg,reciprocate,1,1,enter,,,,,,,,,,1,0,1,0,,,,,,,,,1,0,1,0,,,,,,,,,,,,,,,,,,,,,,,,,,,,,,,,,,,,,,,,,,,,,,,,,,,,,,,,,,,,,,,,,,,,,,,,,,,,,,,,,,,,,,,,,,,,57.786311200005,None,,,,,,,,,,,,,,,,,,,,,,,,,,001,2020_Feb_24_1420,so_be_u_00,3.2.4,59.3908870566468,
Paul,images/avatar1.jpg,reciprocate,1,1,enter,,,,,,,,,,1,0,1,0,,,,,,,,,2,0,2,0,,,,,,,,,,,,,,,,,,,,,,,,,,,,,,,,,,,,,,,,,,,,,,,,,,,,,,,,,,,,,,,,,,,,,,,,,,,,,,,,,,,,,,,,,,,,58.28122509998502,None,,,,,,,,,,,,,,,,,,,,,,,,,,001,2020_Feb_24_1420,so_be_u_00,3.2.4,59.3908870566468,
Paul,images/avatar1.jpg,reciprocate,1,1,enter,,,,,,,,,,1,0,1,0,,,,,,,,,3,0,3,0,,,,,,,,,,,,,,,,,,,,,,,,,,,,,,,,,,,,,,,,,,,,,,,,,,,,,,,,,,,,,,,,,,,,,,,,,,,,,,,,,,,,,,,,,,,,58.77802089997567,None,,,,,,,,,,,,,,,,,,,,,,,,,,001,2020_Feb_24_1420,so_be_u_00,3.2.4,59.3908870566468,
Paul,images/avatar1.jpg,reciprocate,1,1,enter,,,,,,,,,,1,0,1,0,,,,,,,,,,,,,,,,,,,,,,,,,,,,,,,,,,,,,,,,,,,,,,,,,,,,,,,,,,,,,,,,,,,,,,,,,,,,,,,,,,,,,,,,,,,,,,,,,,,,,,,,,,,,,,,,,,,,59.28826810000464,None,59.46118619997287,59.97333339997567,,,,,,,,,,,,001,2020_Feb_24_1420,so_be_u_00,3.2.4,59.3908870566468,
