playerId,avatarFile,choiceLabel,actionLabel,actionRound,sliderID,sliderText,sliderMin,sliderMax,sliderChoices,bufferLoop.thisRepN,bufferLoop.thisTrialN,bufferLoop.thisN,bufferLoop.thisIndex,trials.thisRepN,trials.thisTrialN,trials.thisN,trials.thisIndex,sbLoop.thisRepN,sbLoop.thisTrialN,sbLoop.thisN,sbLoop.thisIndex,sliders_1.thisRepN,sliders_1.thisTrialN,sliders_1.thisN,sliders_1.thisIndex,trials_2.thisRepN,trials_2.thisTrialN,trials_2.thisN,trials_2.thisIndex,cB_1.started,cB_1.stopped,textWelcome.started,textWelcome.stopped,keyWelcome.keys,keyWelcome.started,keyWelcome.stopped,out_0.keys,out_0.rt,out_0.started,out_0.stopped,cB_2.started,cB_2.stopped,textInstructions.started,textInstructions.stopped,keyInstructions.keys,keyInstructions.started,keyInstructions.stopped,out_1.keys,out_1.rt,out_1.started,out_1.stopped,cB_3.started,cB_3.stopped,textServer.started,textServer.stopped,keyServer.keys,keyServer.started,keyServer.stopped,out_2.keys,out_2.rt,out_2.started,out_2.stopped,cB_4.started,cB_4.stopped,text_1.started,text_1.stopped,text_2.started,text_2.stopped,text_3.started,text_3.stopped,text_4.started,text_4.stopped,cB_5.started,cB_5.stopped,idle.started,idle.stopped,idle_2.started,idle_2.stopped,idle_3.started,idle_3.stopped,idle_4.started,idle_4.stopped,idle_5.started,idle_5.stopped,idle_6.started,idle_6.stopped,idle_7.started,idle_7.stopped,ilde_8.started,ilde_8.stopped,idle_9.started,idle_9.stopped,idle_10.started,idle_10.stopped,idle_11.started,idle_11.stopped,idle_12.started,idle_12.stopped,cB_6.started,cB_6.stopped,sBInstructions.started,sBInstructions.stopped,keySbInstructions.keys,keySbInstructions.started,keySbInstructions.stopped,out_sb.keys,out_sb.rt,out_sb.started,out_sb.stopped,cB_8.started,cB_8.stopped,text.started,text.stopped,imagesbRnd.started,imagesbRnd.stopped,sbChoice.response,sbChoice.rt,sbChoice.history,sbChoice.started,sbChoice.stopped,cB_9.started,cB_9.stopped,totalMoney,paulMoney,lukasMoney,cbFb.started,cbFb.stopped,textFb.started,textFb.stopped,out_Fb.keys,out_Fb.started,out_Fb.stopped,cbBuf.started,cbBuf.stopped,fixCross.started,fixCross.stopped,cB_11.started,cB_11.stopped,rating.response,rating.rt,rating.started,rating.stopped,text_5.started,text_5.stopped,participant,session,date,expName,psychopyVersion,frameRate,
,,,,,,,,,,,,,,,,,,,,,,,,,,,,,,6.833347500010859,None,6.833347500010859,None,None,None,None,,,,,,,,,,,,,,,,,,,,,,,,,,,,,,,,,,,,,,,,,,,,,,,,,,,,,,,,,,,,,,,,,,,,,,,,,,,,,,,,,,,,,,,,,,,,,,,,,,,,,,,,,,,,,,001,2020_Feb_24_1343,so_be_u_00,3.2.4,59.53603566213235,
,,,,,,,,,,,,,,,,,,,,,,,,,,,,,,,,,,,,,1,1.0237420999910682,6.833347500010859,None,,,,,,,,,,,,,,,,,,,,,,,,,,,,,,,,,,,,,,,,,,,,,,,,,,,,,,,,,,,,,,,,,,,,,,,,,,,,,,,,,,,,,,,,,,,,,,,,,,,,,,,,,,001,2020_Feb_24_1343,so_be_u_00,3.2.4,59.53603566213235,
,,,,,,,,,,,,,,,,,,,,,,,,,,,,,,,,,,,,,,,,,7.8733493000036106,None,7.8733493000036106,None,None,None,None,,,,,,,,,,,,,,,,,,,,,,,,,,,,,,,,,,,,,,,,,,,,,,,,,,,,,,,,,,,,,,,,,,,,,,,,,,,,,,,,,,,,,,,,,,,,,,,,,,,001,2020_Feb_24_1343,so_be_u_00,3.2.4,59.53603566213235,
,,,,,,,,,,,,,,,,,,,,,,,,,,,,,,,,,,,,,,,,,,,,,,,,1,0.32415000000037253,7.8733493000036106,None,,,,,,,,,,,,,,,,,,,,,,,,,,,,,,,,,,,,,,,,,,,,,,,,,,,,,,,,,,,,,,,,,,,,,,,,,,,,,,,,,,,,,,,,,,,,,,,001,2020_Feb_24_1343,so_be_u_00,3.2.4,59.53603566213235,
,,,,,,,,,,,,,,,,,,,,,,,,,,,,,,,,,,,,,,,,,,,,,,,,,,,,8.21394310001051,None,8.21394310001051,None,None,None,None,,,,,,,,,,,,,,,,,,,,,,,,,,,,,,,,,,,,,,,,,,,,,,,,,,,,,,,,,,,,,,,,,,,,,,,,,,,,,,,,,,,,,,,,001,2020_Feb_24_1343,so_be_u_00,3.2.4,59.53603566213235,
,,,,,,,,,,,,,,,,,,,,,,,,,,,,,,,,,,,,,,,,,,,,,,,,,,,,,,,,,,,1,0.3247835999936797,8.21394310001051,None,,,,,,,,,,,,,,,,,,,,,,,,,,,,,,,,,,,,,,,,,,,,,,,,,,,,,,,,,,,,,,,,,,,,,,,,,,,,,,,,,,,,001,2020_Feb_24_1343,so_be_u_00,3.2.4,59.53603566213235,
,,,,,,,,,,0,0,0,0,,,,,,,,,,,,,,,,,,,,,,,,,,,,,,,,,,,,,,,,,,,,,,,,,,8.55533549998654,None,8.55533549998654,9.560080999974161,9.52550779999001,10.037621299969032,10.037621299969032,10.54793110000901,10.53109389997553,11.04189779999433,,,,,,,,,,,,,,,,,,,,,,,,,,,,,,,,,,,,,,,,,,,,,,,,,,,,,,,,,,,,,,,,,,,,,,,,,,001,2020_Feb_24_1343,so_be_u_00,3.2.4,59.53603566213235,
,,,,,,,,,,,,,,,,,,,,,,,,,,,,,,,,,,,,,,,,,,,,,,,,,,,,,,,,,,,,,,,,,,,,,,,,,11.058843599981628,None,11.228615699976217,11.537100999965332,11.537100999965332,11.74052789999405,11.74052789999405,11.842453699966427,11.842453699966427,11.97864029998891,11.97864029998891,12.132599100004882,12.132599100004882,12.286780399968848,12.286780399968848,12.387845899967942,12.387845899967942,12.882306699990295,12.882306699990295,13.392161900002975,13.392161900002975,13.903079100011382,13.886301000020467,14.398008299991488,14.38110230001621,14.536070499976631,15.09669669996947,None,15.268807000014931,None,None,None,None,,,,,,,,,,,,,,,,,,,,,,,,,,,,,,,,,,,,,,,,,001,2020_Feb_24_1343,so_be_u_00,3.2.4,59.53603566213235,
,,,,,,,,,,,,,,,,,,,,,,,,,,,,,,,,,,,,,,,,,,,,,,,,,,,,,,,,,,,,,,,,,,,,,,,,,,,,,,,,,,,,,,,,,,,,,,,,,,,,,,,,,,1,0.9733223000075668,15.09669669996947,None,,,,,,,,,,,,,,,,,,,,,,,,,,,,,,,,,,,,,001,2020_Feb_24_1343,so_be_u_00,3.2.4,59.53603566213235,
Paul,images/avatar1.jpg,reciprocate,1,1,,,,,,,,,,0,0,0,0,0,0,0,0,,,,,,,,,,,,,,,,,,,,,,,,,,,,,,,,,,,,,,,,,,,,,,,,,,,,,,,,,,,,,,,,,,,,,,,,,,,,,,,,,,,,,,,,,16.2726845999714,None,16.2726845999714,None,16.2726845999714,None,4,1.607,"[('5', 0.0), ('4', 1.234), ('4', 1.607)]",0.002790900005493313,None,17.87465319997864,None,4,4,0,18.40498300001491,None,18.40498300001491,None,None,18.40498300001491,None,20.379822099988814,None,20.55130230000941,21.06095319997985,,,,,,,,,,001,2020_Feb_24_1343,so_be_u_00,3.2.4,59.53603566213235,
Paul,images/avatar1.jpg,reciprocate,1,1,1,How much do you like Paul?,not at all,very much,1 2 3 4 5 6 7,,,,,0,0,0,0,,,,,0,0,0,0,,,,,,,,,,,,,,,,,,,,,,,,,,,,,,,,,,,,,,,,,,,,,,,,,,,,,,,,,,,,,,,,,,,,,,,,,,,,,,,,,,,,,,,,,,,,,,,,,,,,,,,,,,,,,,,,21.35148199996911,None,3,1.001,0.012868299963884056,None,,,,001,2020_Feb_24_1343,so_be_u_00,3.2.4,59.53603566213235,
Paul,images/avatar1.jpg,reciprocate,1,1,2,How much do you want to continue playing with Paul?,not at all,very much,1 2 3 4 5 6 7,,,,,0,0,0,0,,,,,0,1,1,1,,,,,,,,,,,,,,,,,,,,,,,,,,,,,,,,,,,,,,,,,,,,,,,,,,,,,,,,,,,,,,,,,,,,,,,,,,,,,,,,,,,,,,,,,,,,,,,,,,,,,,,,,,,,,,,,22.393885399971623,None,3,0.801,0.014086399925872684,None,,,,001,2020_Feb_24_1343,so_be_u_00,3.2.4,59.53603566213235,
Paul,images/avatar1.jpg,reciprocate,1,1,3,How much do you like Lukas?,not at all,very much,1 2 3 4 5 6 7,,,,,0,0,0,0,,,,,0,2,2,2,,,,,,,,,,,,,,,,,,,,,,,,,,,,,,,,,,,,,,,,,,,,,,,,,,,,,,,,,,,,,,,,,,,,,,,,,,,,,,,,,,,,,,,,,,,,,,,,,,,,,,,,,,,,,,,,23.24422210000921,None,3,0.667,0.01693459996022284,None,,,,001,2020_Feb_24_1343,so_be_u_00,3.2.4,59.53603566213235,
Paul,images/avatar1.jpg,reciprocate,1,1,4,How much do you want to continue playing with Lukas?,not at all,very much,1 2 3 4 5 6 7,,,,,0,0,0,0,,,,,0,3,3,3,,,,,,,,,,,,,,,,,,,,,,,,,,,,,,,,,,,,,,,,,,,,,,,,,,,,,,,,,,,,,,,,,,,,,,,,,,,,,,,,,,,,,,,,,,,,,,,,,,,,,,,,,,,,,,,,23.960487100004684,None,3,0.716,0.01677200000267476,None,,,,001,2020_Feb_24_1343,so_be_u_00,3.2.4,59.53603566213235,
Paul,images/avatar1.jpg,reciprocate,1,1,5,How do you feel?,negative,positive,1 2 3 4 5 6 7,,,,,0,0,0,0,,,,,0,4,4,4,,,,,,,,,,,,,,,,,,,,,,,,,,,,,,,,,,,,,,,,,,,,,,,,,,,,,,,,,,,,,,,,,,,,,,,,,,,,,,,,,,,,,,,,,,,,,,,,,,,,,,,,,,,,,,,,24.724208100000396,None,4,0.618,0.004718000069260597,None,,,,001,2020_Feb_24_1343,so_be_u_00,3.2.4,59.53603566213235,
Paul,images/avatar1.jpg,reciprocate,1,1,6,How activated are you right now?,low,high,1 2 3 4 5 6 7,,,,,0,0,0,0,,,,,0,5,5,5,,,,,,,,,,,,,,,,,,,,,,,,,,,,,,,,,,,,,,,,,,,,,,,,,,,,,,,,,,,,,,,,,,,,,,,,,,,,,,,,,,,,,,,,,,,,,,,,,,,,,,,,,,,,,,,,25.388095500005875,None,5,1.439,0.006416800024453551,None,,,,001,2020_Feb_24_1343,so_be_u_00,3.2.4,59.53603566213235,
Paul,images/avatar1.jpg,reciprocate,1,1,,,,,,,,,,0,0,0,0,,,,,,,,,0,0,0,0,,,,,,,,,,,,,,,,,,,,,,,,,,,,,,,,,,,,,,,,,,,,,,,,,,,,,,,,,,,,,,,,,,,,,,,,,,,,,,,,,,,,,,,,,,,,28.84348380001029,None,,,,,,,,,,,,,,,,,,,,,26.9028876000084,None,,001,2020_Feb_24_1343,so_be_u_00,3.2.4,59.53603566213235,
Paul,images/avatar1.jpg,reciprocate,1,1,,,,,,,,,,0,0,0,0,,,,,,,,,1,0,1,0,,,,,,,,,,,,,,,,,,,,,,,,,,,,,,,,,,,,,,,,,,,,,,,,,,,,,,,,,,,,,,,,,,,,,,,,,,,,,,,,,,,,,,,,,,,,29.337280199979432,None,,,,,,,,,,,,,,,,,,,,,,,,001,2020_Feb_24_1343,so_be_u_00,3.2.4,59.53603566213235,
Paul,images/avatar1.jpg,reciprocate,1,1,,,,,,,,,,0,0,0,0,,,,,,,,,2,0,2,0,,,,,,,,,,,,,,,,,,,,,,,,,,,,,,,,,,,,,,,,,,,,,,,,,,,,,,,,,,,,,,,,,,,,,,,,,,,,,,,,,,,,,,,,,,,,29.848696500004735,None,,,,,,,,,,,,,,,,,,,,,,,,001,2020_Feb_24_1343,so_be_u_00,3.2.4,59.53603566213235,
Paul,images/avatar1.jpg,reciprocate,1,1,,,,,,,,,,0,0,0,0,,,,,,,,,3,0,3,0,,,,,,,,,,,,,,,,,,,,,,,,,,,,,,,,,,,,,,,,,,,,,,,,,,,,,,,,,,,,,,,,,,,,,,,,,,,,,,,,,,,,,,,,,,,,30.340372300008312,None,,,,,,,,,,,,,,,,,,,,,,,,001,2020_Feb_24_1343,so_be_u_00,3.2.4,59.53603566213235,
Paul,images/avatar1.jpg,reciprocate,1,1,,,,,,,,,,0,0,0,0,,,,,,,,,,,,,,,,,,,,,,,,,,,,,,,,,,,,,,,,,,,,,,,,,,,,,,,,,,,,,,,,,,,,,,,,,,,,,,,,,,,,,,,,,,,,,,,,,,,,,,,,,,,,,,,,,,,,30.85089629999129,None,31.02093800000148,31.532034699979704,,,,,,,,,,001,2020_Feb_24_1343,so_be_u_00,3.2.4,59.53603566213235,
