playerAn,playerId,avatarFile,choiceLabel,actionLabel,actionRound,sliderID,sliderText,sliderMin,sliderMax,sliderChoices,bufferLoop.thisRepN,bufferLoop.thisTrialN,bufferLoop.thisN,bufferLoop.thisIndex,sbLoop_0.thisRepN,sbLoop_0.thisTrialN,sbLoop_0.thisN,sbLoop_0.thisIndex,sliders_0.thisRepN,sliders_0.thisTrialN,sliders_0.thisN,sliders_0.thisIndex,buffer_0.thisRepN,buffer_0.thisTrialN,buffer_0.thisN,buffer_0.thisIndex,trials_1.thisRepN,trials_1.thisTrialN,trials_1.thisN,trials_1.thisIndex,sbLoop_1.thisRepN,sbLoop_1.thisTrialN,sbLoop_1.thisN,sbLoop_1.thisIndex,sliders_1.thisRepN,sliders_1.thisTrialN,sliders_1.thisN,sliders_1.thisIndex,buffer_1.thisRepN,buffer_1.thisTrialN,buffer_1.thisN,buffer_1.thisIndex,cB_1.started,cB_1.stopped,textWelcome.started,textWelcome.stopped,keyWelcome.keys,keyWelcome.started,keyWelcome.stopped,out_0.keys,out_0.rt,out_0.started,out_0.stopped,cB_2.started,cB_2.stopped,textInstructions.started,textInstructions.stopped,keyInstructions.keys,keyInstructions.started,keyInstructions.stopped,out_1.keys,out_1.rt,out_1.started,out_1.stopped,cB_12.started,cB_12.stopped,textInstructions_2.started,textInstructions_2.stopped,keyInstructions_2.keys,keyInstructions_2.started,keyInstructions_2.stopped,out_3.keys,out_3.rt,out_3.started,out_3.stopped,cB.started,cB.stopped,typedWord,displayText.started,displayText.stopped,copyText.started,copyText.stopped,out.keys,out.started,out.stopped,cB_3.started,cB_3.stopped,textServer.started,textServer.stopped,keyServer.keys,keyServer.rt,keyServer.started,keyServer.stopped,out_2.keys,out_2.started,out_2.stopped,cB_4.started,cB_4.stopped,text_1.started,text_1.stopped,text_2.started,text_2.stopped,text_3.started,text_3.stopped,text_4.started,text_4.stopped,cB_5.started,cB_5.stopped,idle.started,idle.stopped,idle_2.started,idle_2.stopped,idle_3.started,idle_3.stopped,idle_4.started,idle_4.stopped,idle_5.started,idle_5.stopped,idle_6.started,idle_6.stopped,idle_7.started,idle_7.stopped,ilde_8.started,ilde_8.stopped,idle_9.started,idle_9.stopped,idle_10.started,idle_10.stopped,idle_11.started,idle_11.stopped,idle_12.started,idle_12.stopped,cB_6.started,cB_6.stopped,sBInstructions.started,sBInstructions.stopped,keySbInstructions.keys,keySbInstructions.rt,keySbInstructions.started,keySbInstructions.stopped,out_sb.keys,out_sb.started,out_sb.stopped,cB_8.started,cB_8.stopped,text.started,text.stopped,imagesbRnd.started,imagesbRnd.stopped,sbChoice.response,sbChoice.rt,sbChoice.history,sbChoice.started,sbChoice.stopped,text_6.started,text_6.stopped,cB_9.started,cB_9.stopped,text_7.started,text_7.stopped,totalMoney,paulMoney,lukasMoney,cbFb.started,cbFb.stopped,textFb.started,textFb.stopped,out_Fb.keys,out_Fb.started,out_Fb.stopped,cbBuf.started,cbBuf.stopped,text_8.started,text_8.stopped,cB_11.started,cB_11.stopped,rating.response,rating.rt,rating.started,rating.stopped,participant,session,date,expName,psychopyVersion,frameRate,
,,,,,,,,,,,,,,,,,,,,,,,,,,,,,,,,,,,,,,,,,,,6.447976899915375,None,6.447976899915375,None,None,None,None,,,,,,,,,,,,,,,,,,,,,,,,,,,,,,,,,,,,,,,,,,,,,,,,,,,,,,,,,,,,,,,,,,,,,,,,,,,,,,,,,,,,,,,,,,,,,,,,,,,,,,,,,,,,,,,,,,,,,,,,,,,,,,,,,,,,,001,2020_Feb_27_1024,so_be_u_00,3.2.4,58.36897245693649,
,,,,,,,,,,,,,,,,,,,,,,,,,,,,,,,,,,,,,,,,,,,,,,,,,,1,0.9293005999643356,6.447976899915375,None,,,,,,,,,,,,,,,,,,,,,,,,,,,,,,,,,,,,,,,,,,,,,,,,,,,,,,,,,,,,,,,,,,,,,,,,,,,,,,,,,,,,,,,,,,,,,,,,,,,,,,,,,,,,,,,,,,,,,,,,,,,,,,,,,001,2020_Feb_27_1024,so_be_u_00,3.2.4,58.36897245693649,
,,,,,,,,,,,,,,,,,,,,,,,,,,,,,,,,,,,,,,,,,,,,,,,,,,,,,,7.477616099989973,None,7.477616099989973,None,None,None,None,,,,,,,,,,,,,,,,,,,,,,,,,,,,,,,,,,,,,,,,,,,,,,,,,,,,,,,,,,,,,,,,,,,,,,,,,,,,,,,,,,,,,,,,,,,,,,,,,,,,,,,,,,,,,,,,,,,,,,,,,,001,2020_Feb_27_1024,so_be_u_00,3.2.4,58.36897245693649,
,,,,,,,,,,,,,,,,,,,,,,,,,,,,,,,,,,,,,,,,,,,,,,,,,,,,,,,,,,,,,1,1.2994578999932855,7.477616099989973,None,,,,,,,,,,,,,,,,,,,,,,,,,,,,,,,,,,,,,,,,,,,,,,,,,,,,,,,,,,,,,,,,,,,,,,,,,,,,,,,,,,,,,,,,,,,,,,,,,,,,,,,,,,,,,,,,,,,,,,001,2020_Feb_27_1024,so_be_u_00,3.2.4,58.36897245693649,
,,,,,,,,,,,,,,,,,,,,,,,,,,,,,,,,,,,,,,,,,,,,,,,,,,,,,,,,,,,,,,,,,8.912238799966872,None,8.912238799966872,None,None,None,None,,,,,,,,,,,,,,,,,,,,,,,,,,,,,,,,,,,,,,,,,,,,,,,,,,,,,,,,,,,,,,,,,,,,,,,,,,,,,,,,,,,,,,,,,,,,,,,,,,,,,,,,,,,,,,,001,2020_Feb_27_1024,so_be_u_00,3.2.4,58.36897245693649,
,,,,,,,,,,,,,,,,,,,,,,,,,,,,,,,,,,,,,,,,,,,,,,,,,,,,,,,,,,,,,,,,,,,,,,,,1,1.5582152999704704,8.912238799966872,None,,,,,,,,,,,,,,,,,,,,,,,,,,,,,,,,,,,,,,,,,,,,,,,,,,,,,,,,,,,,,,,,,,,,,,,,,,,,,,,,,,,,,,,,,,,,,,,,,,,,,,,,,,,001,2020_Feb_27_1024,so_be_u_00,3.2.4,58.36897245693649,
,,,,,,,,,,,,,,,,,,,,,,,,,,,,,,,,,,,,,,,,,,,,,,,,,,,,,,,,,,,,,,,,,,,,,,,,,,,,10.523683000006713,None,Ronny,10.523683000006713,None,10.523683000006713,None,None,10.523683000006713,None,,,,,,,,,,,,,,,,,,,,,,,,,,,,,,,,,,,,,,,,,,,,,,,,,,,,,,,,,,,,,,,,,,,,,,,,,,,,,,,,,,,,,,,,,,,,,,,,,001,2020_Feb_27_1024,so_be_u_00,3.2.4,58.36897245693649,
,,,,,,,,,,,,,,,,,,,,,,,,,,,,,,,,,,,,,,,,,,,,,,,,,,,,,,,,,,,,,,,,,,,,,,,,,,,,,,,,,,,,,,13.511257299920544,None,13.511257299920544,None,c,0.6150908999843523,15.49638409994077,None,,,,,,,,,,,,,,,,,,,,,,,,,,,,,,,,,,,,,,,,,,,,,,,,,,,,,,,,,,,,,,,,,,,,,,,,,,,,,,,,,,,,,,,,,001,2020_Feb_27_1024,so_be_u_00,3.2.4,58.36897245693649,
,,,,,,,,,,,,,,,,,,,,,,,,,,,,,,,,,,,,,,,,,,,,,,,,,,,,,,,,,,,,,,,,,,,,,,,,,,,,,,,,,,,,,,,,,,,,,,None,13.511257299920544,None,,,,,,,,,,,,,,,,,,,,,,,,,,,,,,,,,,,,,,,,,,,,,,,,,,,,,,,,,,,,,,,,,,,,,,,,,,,,,,,,,,,,,,001,2020_Feb_27_1024,so_be_u_00,3.2.4,58.36897245693649,
,,,,,,,,,,,0,0,0,0,,,,,,,,,,,,,,,,,,,,,,,,,,,,,,,,,,,,,,,,,,,,,,,,,,,,,,,,,,,,,,,,,,,,,,,,,,,,,,,,,,,16.12803309992887,None,16.12803309992887,17.140424699988216,17.105979899992235,17.621349099907093,17.603902100003324,18.11802729999181,18.101218799944036,18.616188399959356,,,,,,,,,,,,,,,,,,,,,,,,,,,,,,,,,,,,,,,,,,,,,,,,,,,,,,,,,,,,,,,,,,,,,,,,,,,,001,2020_Feb_27_1024,so_be_u_00,3.2.4,58.36897245693649,
,,,,,,,,,,,,,,,,,,,,,,,,,,,,,,,,,,,,,,,,,,,,,,,,,,,,,,,,,,,,,,,,,,,,,,,,,,,,,,,,,,,,,,,,,,,,,,,,,,,,,,,,,,,18.633126899949275,None,18.80146539991256,19.11098979995586,19.11098979995586,19.317553199944086,19.317553199944086,19.400903799920343,19.400903799920343,19.55579329992179,19.55579329992179,19.7125402999809,19.7125402999809,19.850517199956812,19.850517199956812,19.952416199957952,19.952416199957952,20.46708019997459,20.46708019997459,20.97844669991173,20.961483199964277,21.474187099956907,21.456874699913897,21.970097399898805,21.952227599918842,22.106474499916658,22.684935699915513,None,22.87214559991844,None,c,0.8750307000009343,24.668510399991646,None,,,,,,,,,,,,,,,,,,,,,,,,,,,,,,,,,,,,,,,,,,001,2020_Feb_27_1024,so_be_u_00,3.2.4,58.36897245693649,
,,,,,,,,,,,,,,,,,,,,,,,,,,,,,,,,,,,,,,,,,,,,,,,,,,,,,,,,,,,,,,,,,,,,,,,,,,,,,,,,,,,,,,,,,,,,,,,,,,,,,,,,,,,,,,,,,,,,,,,,,,,,,,,,,,,,,,,,,,,,,None,22.684935699915513,None,,,,,,,,,,,,,,,,,,,,,,,,,,,,,,,,,,,,,,,001,2020_Feb_27_1024,so_be_u_00,3.2.4,58.36897245693649,
PlayerA,Paul,images/avatar1.jpg,reciprocate,1,0,,,,,,,,,,0,0,0,0,,,,,,,,,,,,,,,,,,,,,,,,,,,,,,,,,,,,,,,,,,,,,,,,,,,,,,,,,,,,,,,,,,,,,,,,,,,,,,,,,,,,,,,,,,,,,,,,,,,,,,,,,,,,,,,,,,,,,,,,,,,,,,25.69786779989954,None,25.69786779989954,None,25.69786779989954,None,4,1.221,"[('5', 0.0), ('4', 0.826), ('4', 1.221)]",0.00624194007832557,None,25.69786779989954,None,26.92941189999692,None,26.92941189999692,None,4,4,0,28.950233999988995,None,28.950233999988995,None,None,28.950233999988995,None,33.93925599998329,None,34.109130800003186,34.72443719999865,,,,,,,,001,2020_Feb_27_1024,so_be_u_00,3.2.4,58.36897245693649,
PlayerB,Lukas,images/avatar2.jpg,reciprocate,1,0,,,,,,,,,,0,1,1,2,,,,,,,,,,,,,,,,,,,,,,,,,,,,,,,,,,,,,,,,,,,,,,,,,,,,,,,,,,,,,,,,,,,,,,,,,,,,,,,,,,,,,,,,,,,,,,,,,,,,,,,,,,,,,,,,,,,,,,,,,,,,,,34.996369599946775,None,34.996369599946775,None,34.996369599946775,None,7,1.367,"[('5', 0.0), ('6', 0.871), ('7', 1.076), ('7', 1.367)]",0.003290340071544051,None,34.996369599946775,None,36.37532479991205,None,36.37532479991205,None,11,4,7,38.41558799997438,None,38.41558799997438,None,None,38.41558799997438,None,43.390577299986035,None,43.56277889991179,44.178782299975865,,,,,,,,001,2020_Feb_27_1024,so_be_u_00,3.2.4,58.36897245693649,
PlayerB,Lukas,images/avatar2.jpg,reciprocate,1,0,,,,,,,,,,0,2,2,1,,,,,,,,,,,,,,,,,,,,,,,,,,,,,,,,,,,,,,,,,,,,,,,,,,,,,,,,,,,,,,,,,,,,,,,,,,,,,,,,,,,,,,,,,,,,,,,,,,,,,,,,,,,,,,,,,,,,,,,,,,,,,,44.400227100006305,None,44.400227100006305,None,44.400227100006305,None,7,1.364,"[('5', 0.0), ('6', 0.903), ('7', 1.094), ('7', 1.364)]",0.014796659932471812,None,44.400227100006305,None,45.780408479995096,None,45.780408479995096,None,18,4,14,45.80024579993915,None,45.80024579993915,None,None,45.80024579993915,None,50.79479819990229,None,50.96529099997133,51.579806499998085,,,,,,,,001,2020_Feb_27_1024,so_be_u_00,3.2.4,58.36897245693649,
PlayerB,Lukas,images/avatar2.jpg,reciprocate,1,0,,,,,,,,,,1,0,3,1,,,,,,,,,,,,,,,,,,,,,,,,,,,,,,,,,,,,,,,,,,,,,,,,,,,,,,,,,,,,,,,,,,,,,,,,,,,,,,,,,,,,,,,,,,,,,,,,,,,,,,,,,,,,,,,,,,,,,,,,,,,,,,51.80116779997479,None,51.80116779997479,None,51.80116779997479,None,8,1.197,"[('5', 0.0), ('6', 0.613), ('7', 0.803), ('8', 0.941), ('8', 1.196)]",0.014867660007439554,None,51.80116779997479,None,53.013887999928556,None,53.013887999928556,None,26,4,22,55.04951829998754,None,55.04951829998754,None,None,55.04951829998754,None,60.046091399970464,None,60.21601219999138,60.815552399959415,,,,,,,,001,2020_Feb_27_1024,so_be_u_00,3.2.4,58.36897245693649,
PlayerA,Paul,images/avatar1.jpg,reciprocate,1,0,,,,,,,,,,1,1,4,0,,,,,,,,,,,,,,,,,,,,,,,,,,,,,,,,,,,,,,,,,,,,,,,,,,,,,,,,,,,,,,,,,,,,,,,,,,,,,,,,,,,,,,,,,,,,,,,,,,,,,,,,,,,,,,,,,,,,,,,,,,,,,,61.12194169999566,None,61.12194169999566,None,61.12194169999566,None,7,0.875,"[('5', 0.0), ('6', 0.448), ('7', 0.618), ('7', 0.875)]",0.004812799976207316,None,61.12194169999566,None,62.006259299931116,None,62.006259299931116,None,33,11,22,64.02695999993011,None,64.02695999993011,None,None,64.02695999993011,None,69.01569229993038,None,69.1871203999035,69.78703070001211,,,,,,,,001,2020_Feb_27_1024,so_be_u_00,3.2.4,58.36897245693649,
PlayerB,Lukas,images/avatar2.jpg,reciprocate,1,0,,,,,,,,,,1,2,5,2,,,,,,,,,,,,,,,,,,,,,,,,,,,,,,,,,,,,,,,,,,,,,,,,,,,,,,,,,,,,,,,,,,,,,,,,,,,,,,,,,,,,,,,,,,,,,,,,,,,,,,,,,,,,,,,,,,,,,,,,,,,,,,70.09913119999692,None,70.09913119999692,None,70.09913119999692,None,8,1.123,"[('5', 0.0), ('6', 0.54), ('7', 0.745), ('8', 0.899), ('8', 1.123)]",0.013640700024552643,None,70.09913119999692,None,71.2365751999896,None,71.2365751999896,None,41,11,30,72.26217539992649,None,72.26217539992649,None,None,72.26217539992649,None,77.2568054998992,None,77.42691519996151,78.04243619996123,,,,,,,,001,2020_Feb_27_1024,so_be_u_00,3.2.4,58.36897245693649,
,,,,,,1,How much do you like Paul?,not at all,very much,1 2 3 4 5 6 7,,,,,,,,,0,0,0,0,,,,,,,,,,,,,,,,,,,,,,,,,,,,,,,,,,,,,,,,,,,,,,,,,,,,,,,,,,,,,,,,,,,,,,,,,,,,,,,,,,,,,,,,,,,,,,,,,,,,,,,,,,,,,,,,,,,,,,,,,,,,,,,,,,,,,,,,,,,,,,,,,,,,,,,,,78.33100609993562,None,6,1.197,0.004074800061061978,None,,001,2020_Feb_27_1024,so_be_u_00,3.2.4,58.36897245693649,
,,,,,,2,How much do you want to continue playing with Paul?,not at all,very much,1 2 3 4 5 6 7,,,,,,,,,0,1,1,1,,,,,,,,,,,,,,,,,,,,,,,,,,,,,,,,,,,,,,,,,,,,,,,,,,,,,,,,,,,,,,,,,,,,,,,,,,,,,,,,,,,,,,,,,,,,,,,,,,,,,,,,,,,,,,,,,,,,,,,,,,,,,,,,,,,,,,,,,,,,,,,,,,,,,,,,,79.5766786999302,None,6,1.076,0.015840940177440643,None,,001,2020_Feb_27_1024,so_be_u_00,3.2.4,58.36897245693649,
,,,,,,3,How much do you like Lukas?,not at all,very much,1 2 3 4 5 6 7,,,,,,,,,0,2,2,2,,,,,,,,,,,,,,,,,,,,,,,,,,,,,,,,,,,,,,,,,,,,,,,,,,,,,,,,,,,,,,,,,,,,,,,,,,,,,,,,,,,,,,,,,,,,,,,,,,,,,,,,,,,,,,,,,,,,,,,,,,,,,,,,,,,,,,,,,,,,,,,,,,,,,,,,,80.700972899911,None,7,1.041,0.0010235600639134645,None,,001,2020_Feb_27_1024,so_be_u_00,3.2.4,58.36897245693649,
,,,,,,4,How much do you want to continue playing with Lukas?,not at all,very much,1 2 3 4 5 6 7,,,,,,,,,0,3,3,3,,,,,,,,,,,,,,,,,,,,,,,,,,,,,,,,,,,,,,,,,,,,,,,,,,,,,,,,,,,,,,,,,,,,,,,,,,,,,,,,,,,,,,,,,,,,,,,,,,,,,,,,,,,,,,,,,,,,,,,,,,,,,,,,,,,,,,,,,,,,,,,,,,,,,,,,,81.79423609992955,None,6,0.987,0.01538174005690962,None,,001,2020_Feb_27_1024,so_be_u_00,3.2.4,58.36897245693649,
,,,,,,5,How do you feel?,negative,positive,1 2 3 4 5 6 7,,,,,,,,,0,4,4,4,,,,,,,,,,,,,,,,,,,,,,,,,,,,,,,,,,,,,,,,,,,,,,,,,,,,,,,,,,,,,,,,,,,,,,,,,,,,,,,,,,,,,,,,,,,,,,,,,,,,,,,,,,,,,,,,,,,,,,,,,,,,,,,,,,,,,,,,,,,,,,,,,,,,,,,,,82.82915839995258,None,6,1.046,0.004217559937387705,None,,001,2020_Feb_27_1024,so_be_u_00,3.2.4,58.36897245693649,
,,,,,,6,How activated are you right now?,low,high,1 2 3 4 5 6 7,,,,,,,,,0,5,5,5,,,,,,,,,,,,,,,,,,,,,,,,,,,,,,,,,,,,,,,,,,,,,,,,,,,,,,,,,,,,,,,,,,,,,,,,,,,,,,,,,,,,,,,,,,,,,,,,,,,,,,,,,,,,,,,,,,,,,,,,,,,,,,,,,,,,,,,,,,,,,,,,,,,,,,,,,83.92009289993439,None,5,1.353,0.004142859950661659,None,,001,2020_Feb_27_1024,so_be_u_00,3.2.4,58.36897245693649,
,,,,,,,,,,,,,,,,,,,,,,,0,0,0,0,,,,,,,,,,,,,,,,,,,,,,,,,,,,,,,,,,,,,,,,,,,,,,,,,,,,,,,,,,,,,,,,,,,,,,,,,,,,,,,,,,,,,,,,,,,,,,,,,,,,,,,,,,,,,,,,,,,,,,,,,,,,,,,,,,,85.28425369993784,None,85.28425369993784,None,,,,,,,,,,,,,,,,,,,,,,001,2020_Feb_27_1024,so_be_u_00,3.2.4,58.36897245693649,
,,,,,,,,,,,,,,,,,,,,,,,1,0,1,0,,,,,,,,,,,,,,,,,,,,,,,,,,,,,,,,,,,,,,,,,,,,,,,,,,,,,,,,,,,,,,,,,,,,,,,,,,,,,,,,,,,,,,,,,,,,,,,,,,,,,,,,,,,,,,,,,,,,,,,,,,,,,,,,,,,89.2883566999808,89.2883566999808,89.2883566999808,89.2883566999808,,,,,,,,,,,,,,,,,,,,,,001,2020_Feb_27_1024,so_be_u_00,3.2.4,58.36897245693649,
,,,,,,,,,,,,,,,,,,,,,,,2,0,2,0,,,,,,,,,,,,,,,,,,,,,,,,,,,,,,,,,,,,,,,,,,,,,,,,,,,,,,,,,,,,,,,,,,,,,,,,,,,,,,,,,,,,,,,,,,,,,,,,,,,,,,,,,,,,,,,,,,,,,,,,,,,,,,,,,,,90.29774790001102,90.29774790001102,90.29774790001102,90.29774790001102,,,,,,,,,,,,,,,,,,,,,,001,2020_Feb_27_1024,so_be_u_00,3.2.4,58.36897245693649,
,,,,,,,,,,,,,,,,,,,,,,,3,0,3,0,,,,,,,,,,,,,,,,,,,,,,,,,,,,,,,,,,,,,,,,,,,,,,,,,,,,,,,,,,,,,,,,,,,,,,,,,,,,,,,,,,,,,,,,,,,,,,,,,,,,,,,,,,,,,,,,,,,,,,,,,,,,,,,,,,,91.30653820000589,91.30653820000589,91.30653820000589,91.30653820000589,,,,,,,,,,,,,,,,,,,,,,001,2020_Feb_27_1024,so_be_u_00,3.2.4,58.36897245693649,
PlayerA,Paul,images/avatar1.jpg,reciprocate,1,1,,,,,,,,,,,,,,,,,,,,,,0,0,0,0,0,0,0,2,,,,,,,,,,,,,,,,,,,,,,,,,,,,,,,,,,,,,,,,,,,,,,,,,,,,,,,,,,,,,,,,,,,,,,,,,,,,,,,,,,,,,,,,,,,,,,,,,,,,,,,,,,,,,,96.41740299994126,None,96.41740299994126,None,96.41740299994126,None,6,5.564,"[('5', 0.0), ('4', 3.125), ('3', 3.331), ('4', 4.949), ('5', 5.157), ('6', 5.395), ('6', 5.564)]",0.006339379935525358,None,96.41740299994126,None,101.9899865000043,None,101.9899865000043,None,47,17,30,103.01983199990354,None,103.01983199990354,None,None,103.01983199990354,None,108.00598299992271,None,108.17662990000099,108.77623339998536,,,,,,,,001,2020_Feb_27_1024,so_be_u_00,3.2.4,58.36897245693649,
PlayerA,Paul,images/avatar1.jpg,reciprocate,1,1,,,,,,,,,,,,,,,,,,,,,,0,0,0,0,0,1,1,0,,,,,,,,,,,,,,,,,,,,,,,,,,,,,,,,,,,,,,,,,,,,,,,,,,,,,,,,,,,,,,,,,,,,,,,,,,,,,,,,,,,,,,,,,,,,,,,,,,,,,,,,,,,,,,109.08443689998239,None,109.08443689998239,None,109.08443689998239,None,6,0.767,"[('5', 0.0), ('6', 0.563), ('6', 0.767)]",0.016671199933625758,None,109.08443689998239,None,109.86581049999222,None,109.86581049999222,None,53,23,30,111.8870692999335,None,111.8870692999335,None,None,111.8870692999335,None,116.87498929991852,None,117.04561219993047,117.64599779993296,,,,,,,,001,2020_Feb_27_1024,so_be_u_00,3.2.4,58.36897245693649,
PlayerA,Paul,images/avatar1.jpg,reciprocate,1,1,,,,,,,,,,,,,,,,,,,,,,0,0,0,0,0,2,2,1,,,,,,,,,,,,,,,,,,,,,,,,,,,,,,,,,,,,,,,,,,,,,,,,,,,,,,,,,,,,,,,,,,,,,,,,,,,,,,,,,,,,,,,,,,,,,,,,,,,,,,,,,,,,,,117.92444649990648,None,117.92444649990648,None,117.92444649990648,None,7,0.936,"[('5', 0.0), ('6', 0.459), ('7', 0.613), ('7', 0.936)]",0.01283002004493028,None,117.92444649990648,None,118.87487519998103,None,118.87487519998103,None,60,30,30,119.90368449990638,None,119.90368449990638,None,None,119.90368449990638,None,124.90005950001068,None,125.0718479999341,125.67151369992644,,,,,,,,001,2020_Feb_27_1024,so_be_u_00,3.2.4,58.36897245693649,
PlayerA,Paul,images/avatar1.jpg,reciprocate,1,1,,,,,,,,,,,,,,,,,,,,,,0,0,0,0,0,3,3,4,,,,,,,,,,,,,,,,,,,,,,,,,,,,,,,,,,,,,,,,,,,,,,,,,,,,,,,,,,,,,,,,,,,,,,,,,,,,,,,,,,,,,,,,,,,,,,,,,,,,,,,,,,,,,,125.94841720000841,None,125.94841720000841,None,125.94841720000841,None,6,0.8,"[('5', 0.0), ('6', 0.476), ('6', 0.8)]",0.01039261999540031,None,125.94841720000841,None,126.76181890000589,None,126.76181890000589,None,66,36,30,128.78268609999213,None,128.78268609999213,None,None,128.78268609999213,None,133.7698909000028,None,133.94035309995525,134.5409845999675,,,,,,,,001,2020_Feb_27_1024,so_be_u_00,3.2.4,58.36897245693649,
PlayerB,Lukas,images/avatar2.jpg,keep the investment,0,1,,,,,,,,,,,,,,,,,,,,,,0,0,0,0,0,4,4,17,,,,,,,,,,,,,,,,,,,,,,,,,,,,,,,,,,,,,,,,,,,,,,,,,,,,,,,,,,,,,,,,,,,,,,,,,,,,,,,,,,,,,,,,,,,,,,,,,,,,,,,,,,,,,,134.84957610000856,None,134.84957610000856,None,134.84957610000856,None,7,1.214,"[('5', 0.0), ('6', 0.788), ('7', 0.973), ('7', 1.214)]",0.0028903201455250382,None,134.84957610000856,None,136.07754999992903,None,136.07754999992903,None,66,36,30,138.09606369992252,None,138.09606369992252,None,None,138.09606369992252,None,143.09552500001155,None,143.26740069990046,143.88183739990927,,,,,,,,001,2020_Feb_27_1024,so_be_u_00,3.2.4,58.36897245693649,
PlayerA,Paul,images/avatar1.jpg,keep the investment,0,1,,,,,,,,,,,,,,,,,,,,,,0,0,0,0,0,5,5,8,,,,,,,,,,,,,,,,,,,,,,,,,,,,,,,,,,,,,,,,,,,,,,,,,,,,,,,,,,,,,,,,,,,,,,,,,,,,,,,,,,,,,,,,,,,,,,,,,,,,,,,,,,,,,,144.1698685999727,None,144.1698685999727,None,144.1698685999727,None,7,0.9,"[('5', 0.0), ('6', 0.404), ('7', 0.627), ('7', 0.9)]",0.010335200000554323,None,144.1698685999727,None,145.07379769999534,None,145.07379769999534,None,66,36,30,146.10737929993775,None,146.10737929993775,None,None,146.10737929993775,None,151.1017898999853,None,151.27201979991514,151.87094749999233,,,,,,,,001,2020_Feb_27_1024,so_be_u_00,3.2.4,58.36897245693649,
PlayerA,Paul,images/avatar1.jpg,reciprocate,1,1,,,,,,,,,,,,,,,,,,,,,,0,0,0,0,0,6,6,5,,,,,,,,,,,,,,,,,,,,,,,,,,,,,,,,,,,,,,,,,,,,,,,,,,,,,,,,,,,,,,,,,,,,,,,,,,,,,,,,,,,,,,,,,,,,,,,,,,,,,,,,,,,,,,152.14990929991473,None,152.14990929991473,None,152.14990929991473,None,6,1.036,"[('5', 0.0), ('6', 0.695), ('6', 1.036)]",0.010491220047697425,None,152.14990929991473,None,153.200741599896,None,153.200741599896,None,72,42,30,155.22039049991872,None,155.22039049991872,None,None,155.22039049991872,None,160.20355229999404,None,160.37460499990266,160.99020229990128,,,,,,,,001,2020_Feb_27_1024,so_be_u_00,3.2.4,58.36897245693649,
PlayerB,Lukas,images/avatar2.jpg,keep the investment,0,1,,,,,,,,,,,,,,,,,,,,,,0,0,0,0,0,7,7,12,,,,,,,,,,,,,,,,,,,,,,,,,,,,,,,,,,,,,,,,,,,,,,,,,,,,,,,,,,,,,,,,,,,,,,,,,,,,,,,,,,,,,,,,,,,,,,,,,,,,,,,,,,,,,,161.2636498999782,None,161.2636498999782,None,161.2636498999782,None,8,1.169,"[('5', 0.0), ('6', 0.57), ('7', 0.81), ('8', 0.962), ('8', 1.168)]",0.00909534003585577,None,161.2636498999782,None,162.43899209995288,None,162.43899209995288,None,72,42,30,167.47180549998302,None,167.47180549998302,None,None,167.47180549998302,None,172.469008199987,None,172.64216449996457,173.24391289998312,,,,,,,,001,2020_Feb_27_1024,so_be_u_00,3.2.4,58.36897245693649,
PlayerA,Paul,images/avatar1.jpg,keep the investment,0,1,,,,,,,,,,,,,,,,,,,,,,0,0,0,0,0,8,8,6,,,,,,,,,,,,,,,,,,,,,,,,,,,,,,,,,,,,,,,,,,,,,,,,,,,,,,,,,,,,,,,,,,,,,,,,,,,,,,,,,,,,,,,,,,,,,,,,,,,,,,,,,,,,,,173.55122799996752,None,173.55122799996752,None,173.55122799996752,None,10,1.873,"[('5', 0.0), ('6', 0.829), ('7', 1.003), ('8', 1.205), ('9', 1.376), ('10', 1.53), ('10', 1.873)]",0.009181599947623909,None,173.55122799996752,None,175.42972409992944,None,175.42972409992944,None,72,42,30,179.4573770998977,None,179.4573770998977,None,None,179.4573770998977,None,184.45635699993,None,184.62817569996696,185.22706239996478,,,,,,,,001,2020_Feb_27_1024,so_be_u_00,3.2.4,58.36897245693649,
PlayerB,Lukas,images/avatar2.jpg,reciprocate,1,1,,,,,,,,,,,,,,,,,,,,,,0,0,0,0,0,9,9,10,,,,,,,,,,,,,,,,,,,,,,,,,,,,,,,,,,,,,,,,,,,,,,,,,,,,,,,,,,,,,,,,,,,,,,,,,,,,,,,,,,,,,,,,,,,,,,,,,,,,,,,,,,,,,,185.50029419991188,None,185.50029419991188,None,185.50029419991188,None,1,2.586,"[('5', 0.0), ('4', 1.373), ('3', 1.562), ('2', 1.7), ('1', 1.852), ('1', 2.586)]",0.011763740098103881,None,185.50029419991188,None,188.09155019989703,None,188.09155019989703,None,73,42,31,192.11364999995567,None,192.11364999995567,None,None,192.11364999995567,None,197.10220199998002,None,197.2716113999486,197.88659359992016,,,,,,,,001,2020_Feb_27_1024,so_be_u_00,3.2.4,58.36897245693649,
PlayerA,Paul,images/avatar1.jpg,keep the investment,0,1,,,,,,,,,,,,,,,,,,,,,,0,0,0,0,0,10,10,7,,,,,,,,,,,,,,,,,,,,,,,,,,,,,,,,,,,,,,,,,,,,,,,,,,,,,,,,,,,,,,,,,,,,,,,,,,,,,,,,,,,,,,,,,,,,,,,,,,,,,,,,,,,,,,198.19419979990926,None,198.19419979990926,None,198.19419979990926,None,4,2.143,"[('5', 0.0), ('4', 1.561), ('4', 2.143)]",0.009290699963457882,None,198.19419979990926,None,200.34203780000098,None,200.34203780000098,None,73,42,31,202.3589878999628,None,202.3589878999628,None,None,202.3589878999628,None,207.34536409995053,None,207.5183671999257,208.13340269995388,,,,,,,,001,2020_Feb_27_1024,so_be_u_00,3.2.4,58.36897245693649,
PlayerB,Lukas,images/avatar2.jpg,keep the investment,0,1,,,,,,,,,,,,,,,,,,,,,,0,0,0,0,0,11,11,16,,,,,,,,,,,,,,,,,,,,,,,,,,,,,,,,,,,,,,,,,,,,,,,,,,,,,,,,,,,,,,,,,,,,,,,,,,,,,,,,,,,,,,,,,,,,,,,,,,,,,,,,,,,,,,208.40597919991706,None,208.40597919991706,None,208.40597919991706,None,5,1.833,"[('5', 0.0), ('5', 1.833)]",0.01224514003843069,None,208.40597919991706,None,210.2465441999957,None,210.2465441999957,None,73,42,31,215.26705639995635,None,215.26705639995635,None,None,215.26705639995635,None,220.25684789998922,None,220.42906439991202,221.02891309990082,,,,,,,,001,2020_Feb_27_1024,so_be_u_00,3.2.4,58.36897245693649,
PlayerB,Lukas,images/avatar2.jpg,reciprocate,1,1,,,,,,,,,,,,,,,,,,,,,,0,0,0,0,0,12,12,11,,,,,,,,,,,,,,,,,,,,,,,,,,,,,,,,,,,,,,,,,,,,,,,,,,,,,,,,,,,,,,,,,,,,,,,,,,,,,,,,,,,,,,,,,,,,,,,,,,,,,,,,,,,,,,221.28682989999652,None,221.28682989999652,None,221.28682989999652,None,1,2.451,"[('5', 0.0), ('4', 1.427), ('3', 1.649), ('2', 1.804), ('1', 1.975), ('1', 2.451)]",0.012042859918437898,None,221.28682989999652,None,223.75269739993382,None,223.75269739993382,None,74,42,32,225.77290049998555,None,225.77290049998555,None,None,225.77290049998555,None,230.77091550000478,None,230.94289059995208,231.54358289996162,,,,,,,,001,2020_Feb_27_1024,so_be_u_00,3.2.4,58.36897245693649,
PlayerA,Paul,images/avatar1.jpg,reciprocate,1,2,,,,,,,,,,,,,,,,,,,,,,0,0,0,0,0,13,13,19,,,,,,,,,,,,,,,,,,,,,,,,,,,,,,,,,,,,,,,,,,,,,,,,,,,,,,,,,,,,,,,,,,,,,,,,,,,,,,,,,,,,,,,,,,,,,,,,,,,,,,,,,,,,,,231.85094469995238,None,231.85094469995238,None,231.85094469995238,None,5,1.757,"[('5', 0.0), ('5', 1.757)]",0.0018234000308439136,None,231.85094469995238,None,233.6204983999487,None,233.6204983999487,None,79,47,32,237.6514924999792,None,237.6514924999792,None,None,237.6514924999792,None,242.63962699996773,None,242.81092369998805,243.41058249992784,,,,,,,,001,2020_Feb_27_1024,so_be_u_00,3.2.4,58.36897245693649,
PlayerB,Lukas,images/avatar2.jpg,keep the investment,0,1,,,,,,,,,,,,,,,,,,,,,,0,0,0,0,0,14,14,13,,,,,,,,,,,,,,,,,,,,,,,,,,,,,,,,,,,,,,,,,,,,,,,,,,,,,,,,,,,,,,,,,,,,,,,,,,,,,,,,,,,,,,,,,,,,,,,,,,,,,,,,,,,,,,243.68519799993373,None,243.68519799993373,None,243.68519799993373,None,5,2.043,"[('5', 0.0), ('5', 2.043)]",4.175992216914892e-05,None,243.68519799993373,None,245.74400619999506,None,245.74400619999506,None,79,47,32,249.7672965999227,None,249.7672965999227,None,None,249.7672965999227,None,254.75510149996262,None,254.92583799990825,255.5411451999098,,,,,,,,001,2020_Feb_27_1024,so_be_u_00,3.2.4,58.36897245693649,
PlayerB,Lukas,images/avatar2.jpg,keep the investment,0,1,,,,,,,,,,,,,,,,,,,,,,0,0,0,0,0,15,15,14,,,,,,,,,,,,,,,,,,,,,,,,,,,,,,,,,,,,,,,,,,,,,,,,,,,,,,,,,,,,,,,,,,,,,,,,,,,,,,,,,,,,,,,,,,,,,,,,,,,,,,,,,,,,,,255.779912399943,None,255.779912399943,None,255.779912399943,None,0,3.449,"[('5', 0.0), ('4', 1.194), ('3', 2.562), ('2', 2.734), ('1', 2.887), ('0', 3.042), ('0', 3.449)]",0.0011875800555571914,None,255.779912399943,None,259.24057579995133,None,259.24057579995133,None,79,47,32,260.26601629995275,None,260.26601629995275,None,None,260.26601629995275,None,265.2622995999409,None,265.4332502000034,266.0341393999988,,,,,,,,001,2020_Feb_27_1024,so_be_u_00,3.2.4,58.36897245693649,
PlayerB,Lukas,images/avatar2.jpg,keep the investment,0,1,,,,,,,,,,,,,,,,,,,,,,0,0,0,0,0,16,16,15,,,,,,,,,,,,,,,,,,,,,,,,,,,,,,,,,,,,,,,,,,,,,,,,,,,,,,,,,,,,,,,,,,,,,,,,,,,,,,,,,,,,,,,,,,,,,,,,,,,,,,,,,,,,,,266.2732853000052,None,266.2732853000052,None,266.2732853000052,None,0,2.828,"[('5', 0.0), ('4', 1.156), ('3', 2.028), ('2', 2.181), ('1', 2.316), ('0', 2.47), ('0', 2.828)]",0.01446645986288786,None,266.2732853000052,None,269.1159520999063,None,269.1159520999063,None,79,47,32,270.1259492000099,None,270.1259492000099,None,None,270.1259492000099,None,275.1349096999038,None,275.3047796000028,275.9056121999165,,,,,,,,001,2020_Feb_27_1024,so_be_u_00,3.2.4,58.36897245693649,
PlayerB,Lukas,images/avatar2.jpg,keep the investment,0,1,,,,,,,,,,,,,,,,,,,,,,0,0,0,0,0,17,17,18,,,,,,,,,,,,,,,,,,,,,,,,,,,,,,,,,,,,,,,,,,,,,,,,,,,,,,,,,,,,,,,,,,,,,,,,,,,,,,,,,,,,,,,,,,,,,,,,,,,,,,,,,,,,,,276.1621695999056,None,276.1621695999056,None,276.1621695999056,None,0,1.947,"[('5', 0.0), ('4', 0.482), ('3', 1.198), ('2', 1.335), ('1', 1.507), ('0', 1.643), ('0', 1.947)]",0.00463765999302268,None,276.1621695999056,None,278.12096299999394,None,278.12096299999394,None,79,47,32,279.12955159996636,None,279.12955159996636,None,None,279.12955159996636,None,284.140505499905,None,284.31187659990974,284.9124579000054,,,,,,,,001,2020_Feb_27_1024,so_be_u_00,3.2.4,58.36897245693649,
PlayerA,Paul,images/avatar1.jpg,reciprocate,1,1,,,,,,,,,,,,,,,,,,,,,,0,0,0,0,0,18,18,3,,,,,,,,,,,,,,,,,,,,,,,,,,,,,,,,,,,,,,,,,,,,,,,,,,,,,,,,,,,,,,,,,,,,,,,,,,,,,,,,,,,,,,,,,,,,,,,,,,,,,,,,,,,,,,285.2191637000069,None,285.2191637000069,None,285.2191637000069,None,7,3.027,"[('5', 0.0), ('4', 0.877), ('3', 1.084), ('2', 1.324), ('1', 1.525), ('2', 1.851), ('3', 2.054), ('4', 2.224), ('5', 2.378), ('6', 2.533), ('7', 2.688), ('7', 3.027)]",0.006244200048968196,None,285.2191637000069,None,288.25513449998107,None,288.25513449998107,None,86,54,32,290.27836969995406,None,290.27836969995406,None,None,290.27836969995406,None,295.27543579996563,None,295.4453215999529,296.04739389999304,,,,,,,,001,2020_Feb_27_1024,so_be_u_00,3.2.4,58.36897245693649,
PlayerB,Lukas,images/avatar2.jpg,reciprocate,1,1,,,,,,,,,,,,,,,,,,,,,,0,0,0,0,0,19,19,9,,,,,,,,,,,,,,,,,,,,,,,,,,,,,,,,,,,,,,,,,,,,,,,,,,,,,,,,,,,,,,,,,,,,,,,,,,,,,,,,,,,,,,,,,,,,,,,,,,,,,,,,,,,,,,296.32229859998915,None,296.32229859998915,None,296.32229859998915,None,3,1.001,"[('5', 0.0), ('4', 0.591), ('3', 0.762), ('3', 1.001)]",0.012756840093061328,None,296.32229859998915,None,297.32728219998535,None,297.32728219998535,None,89,54,35,299.3447190999286,None,299.3447190999286,None,None,299.3447190999286,None,304.3393151999917,None,304.5093476999318,305.1230075999629,,,,,,,,001,2020_Feb_27_1024,so_be_u_00,3.2.4,58.36897245693649,
,,,,,,1,How much do you like Paul?,not at all,very much,1 2 3 4 5 6 7,,,,,,,,,,,,,,,,,0,0,0,0,,,,,0,0,0,0,,,,,,,,,,,,,,,,,,,,,,,,,,,,,,,,,,,,,,,,,,,,,,,,,,,,,,,,,,,,,,,,,,,,,,,,,,,,,,,,,,,,,,,,,,,,,,,,,,,,,,,,,,,,,,,,,,,,,,,,,,,,,,,,,,,,,,,,,305.4290944999084,None,7,5.561,0.012068100040778518,None,,001,2020_Feb_27_1024,so_be_u_00,3.2.4,58.36897245693649,
,,,,,,2,How much do you want to continue playing with Paul?,not at all,very much,1 2 3 4 5 6 7,,,,,,,,,,,,,,,,,0,0,0,0,,,,,0,1,1,1,,,,,,,,,,,,,,,,,,,,,,,,,,,,,,,,,,,,,,,,,,,,,,,,,,,,,,,,,,,,,,,,,,,,,,,,,,,,,,,,,,,,,,,,,,,,,,,,,,,,,,,,,,,,,,,,,,,,,,,,,,,,,,,,,,,,,,,,,311.02998309989925,None,7,1.346,0.015466740005649626,None,,001,2020_Feb_27_1024,so_be_u_00,3.2.4,58.36897245693649,
,,,,,,3,How much do you like Lukas?,not at all,very much,1 2 3 4 5 6 7,,,,,,,,,,,,,,,,,0,0,0,0,,,,,0,2,2,2,,,,,,,,,,,,,,,,,,,,,,,,,,,,,,,,,,,,,,,,,,,,,,,,,,,,,,,,,,,,,,,,,,,,,,,,,,,,,,,,,,,,,,,,,,,,,,,,,,,,,,,,,,,,,,,,,,,,,,,,,,,,,,,,,,,,,,,,,312.42645609995816,None,1,1.586,0.016894840053282678,None,,001,2020_Feb_27_1024,so_be_u_00,3.2.4,58.36897245693649,
,,,,,,4,How much do you want to continue playing with Lukas?,not at all,very much,1 2 3 4 5 6 7,,,,,,,,,,,,,,,,,0,0,0,0,,,,,0,3,3,3,,,,,,,,,,,,,,,,,,,,,,,,,,,,,,,,,,,,,,,,,,,,,,,,,,,,,,,,,,,,,,,,,,,,,,,,,,,,,,,,,,,,,,,,,,,,,,,,,,,,,,,,,,,,,,,,,,,,,,,,,,,,,,,,,,,,,,,,,314.0611012999434,None,1,1.128,0.01666044001467526,None,,001,2020_Feb_27_1024,so_be_u_00,3.2.4,58.36897245693649,
,,,,,,5,How do you feel?,negative,positive,1 2 3 4 5 6 7,,,,,,,,,,,,,,,,,0,0,0,0,,,,,0,4,4,4,,,,,,,,,,,,,,,,,,,,,,,,,,,,,,,,,,,,,,,,,,,,,,,,,,,,,,,,,,,,,,,,,,,,,,,,,,,,,,,,,,,,,,,,,,,,,,,,,,,,,,,,,,,,,,,,,,,,,,,,,,,,,,,,,,,,,,,,,315.23473449994344,None,6,1.132,0.005854859948158264,None,,001,2020_Feb_27_1024,so_be_u_00,3.2.4,58.36897245693649,
,,,,,,6,How activated are you right now?,low,high,1 2 3 4 5 6 7,,,,,,,,,,,,,,,,,0,0,0,0,,,,,0,5,5,5,,,,,,,,,,,,,,,,,,,,,,,,,,,,,,,,,,,,,,,,,,,,,,,,,,,,,,,,,,,,,,,,,,,,,,,,,,,,,,,,,,,,,,,,,,,,,,,,,,,,,,,,,,,,,,,,,,,,,,,,,,,,,,,,,,,,,,,,,316.41191409993917,None,2,1.048,0.005199459963478148,None,,001,2020_Feb_27_1024,so_be_u_00,3.2.4,58.36897245693649,
,,,,,,,,,,,,,,,,,,,,,,,,,,,0,0,0,0,,,,,,,,,0,0,0,0,,,,,,,,,,,,,,,,,,,,,,,,,,,,,,,,,,,,,,,,,,,,,,,,,,,,,,,,,,,,,,,,,,,,,,,,,,,,,,,,,,,,,,,,,,,,,,,,,,,,,,,,,,,,,,,,,,,317.4689645000035,None,317.4689645000035,None,,,,,,,,,,,,,,,,,,,,,,001,2020_Feb_27_1024,so_be_u_00,3.2.4,58.36897245693649,
,,,,,,,,,,,,,,,,,,,,,,,,,,,0,0,0,0,,,,,,,,,1,0,1,0,,,,,,,,,,,,,,,,,,,,,,,,,,,,,,,,,,,,,,,,,,,,,,,,,,,,,,,,,,,,,,,,,,,,,,,,,,,,,,,,,,,,,,,,,,,,,,,,,,,,,,,,,,,,,,,,,,,322.48377179994714,322.48377179994714,322.48377179994714,322.48377179994714,,,,,,,,,,,,,,,,,,,,,,001,2020_Feb_27_1024,so_be_u_00,3.2.4,58.36897245693649,
,,,,,,,,,,,,,,,,,,,,,,,,,,,0,0,0,0,,,,,,,,,2,0,2,0,,,,,,,,,,,,,,,,,,,,,,,,,,,,,,,,,,,,,,,,,,,,,,,,,,,,,,,,,,,,,,,,,,,,,,,,,,,,,,,,,,,,,,,,,,,,,,,,,,,,,,,,,,,,,,,,,,,324.485311599914,324.485311599914,324.485311599914,324.485311599914,,,,,,,,,,,,,,,,,,,,,,001,2020_Feb_27_1024,so_be_u_00,3.2.4,58.36897245693649,
,,,,,,,,,,,,,,,,,,,,,,,,,,,0,0,0,0,,,,,,,,,3,0,3,0,,,,,,,,,,,,,,,,,,,,,,,,,,,,,,,,,,,,,,,,,,,,,,,,,,,,,,,,,,,,,,,,,,,,,,,,,,,,,,,,,,,,,,,,,,,,,,,,,,,,,,,,,,,,,,,,,,,325.4989217999391,325.4989217999391,325.4989217999391,325.4989217999391,,,,,,,,,,,,,,,,,,,,,,001,2020_Feb_27_1024,so_be_u_00,3.2.4,58.36897245693649,
,,,,,,,,,,,,,,,,,,,,,,,,,,,0,0,0,0,,,,,,,,,,,,,,,,,,,,,,,,,,,,,,,,,,,,,,,,,,,,,,,,,,,,,,,,,,,,,,,,,,,,,,,,,,,,,,,,,,,,,,,,,,,,,,,,,,,,,,,,,,,,,,,,,,,,,,,,,,,,,,,,,,,,,,,,,,,,,328.5142088999273,None,328.684448499931,329.2992339999182,,,,,,,,001,2020_Feb_27_1024,so_be_u_00,3.2.4,58.36897245693649,
