playerId,avatarFile,choiceLabel,actionLabel,actionRound,sliderID,sliderText,sliderMin,sliderMax,sliderChoices,bufferLoop.thisRepN,bufferLoop.thisTrialN,bufferLoop.thisN,bufferLoop.thisIndex,trials.thisRepN,trials.thisTrialN,trials.thisN,trials.thisIndex,sbLoop.thisRepN,sbLoop.thisTrialN,sbLoop.thisN,sbLoop.thisIndex,sliders_1.thisRepN,sliders_1.thisTrialN,sliders_1.thisN,sliders_1.thisIndex,trials_2.thisRepN,trials_2.thisTrialN,trials_2.thisN,trials_2.thisIndex,cB_1.started,cB_1.stopped,textWelcome.started,textWelcome.stopped,keyWelcome.keys,keyWelcome.started,keyWelcome.stopped,out_0.keys,out_0.rt,out_0.started,out_0.stopped,cB_2.started,cB_2.stopped,textInstructions.started,textInstructions.stopped,keyInstructions.keys,keyInstructions.started,keyInstructions.stopped,out_1.keys,out_1.rt,out_1.started,out_1.stopped,cB_3.started,cB_3.stopped,textServer.started,textServer.stopped,keyServer.keys,keyServer.started,keyServer.stopped,out_2.keys,out_2.rt,out_2.started,out_2.stopped,cB_4.started,cB_4.stopped,text_1.started,text_1.stopped,text_2.started,text_2.stopped,text_3.started,text_3.stopped,text_4.started,text_4.stopped,cB_5.started,cB_5.stopped,idle.started,idle.stopped,idle_2.started,idle_2.stopped,idle_3.started,idle_3.stopped,idle_4.started,idle_4.stopped,idle_5.started,idle_5.stopped,idle_6.started,idle_6.stopped,idle_7.started,idle_7.stopped,ilde_8.started,ilde_8.stopped,idle_9.started,idle_9.stopped,idle_10.started,idle_10.stopped,idle_11.started,idle_11.stopped,idle_12.started,idle_12.stopped,cB_6.started,cB_6.stopped,sBInstructions.started,sBInstructions.stopped,keySbInstructions.keys,keySbInstructions.started,keySbInstructions.stopped,out_sb.keys,out_sb.rt,out_sb.started,out_sb.stopped,cB_8.started,cB_8.stopped,text.started,text.stopped,imagesbRnd.started,imagesbRnd.stopped,sbChoice.response,sbChoice.rt,sbChoice.history,sbChoice.started,sbChoice.stopped,sbKeys.keys,sbKeys.rt,sbKeys.started,sbKeys.stopped,cB_9.started,cB_9.stopped,totalMoney,cbFb.started,cbFb.stopped,textFb.started,textFb.stopped,out_Fb.keys,out_Fb.started,out_Fb.stopped,cbBuf.started,cbBuf.stopped,fixCross.started,fixCross.stopped,cB_11.started,cB_11.stopped,rating.response,rating.rt,rating.started,rating.stopped,participant,session,date,expName,psychopyVersion,frameRate,
,,,,,,,,,,,,,,,,,,,,,,,,,,,,,,6.618310300051235,None,6.618310300051235,None,None,None,None,,,,,,,,,,,,,,,,,,,,,,,,,,,,,,,,,,,,,,,,,,,,,,,,,,,,,,,,,,,,,,,,,,,,,,,,,,,,,,,,,,,,,,,,,,,,,,,,,,,,,,,,,,,,,,001,2020_Feb_24_1313,so_be_u_00,3.2.4,58.88747428954753,
,,,,,,,,,,,,,,,,,,,,,,,,,,,,,,,,,,,,,1,0.35849270003382117,6.618310300051235,None,,,,,,,,,,,,,,,,,,,,,,,,,,,,,,,,,,,,,,,,,,,,,,,,,,,,,,,,,,,,,,,,,,,,,,,,,,,,,,,,,,,,,,,,,,,,,,,,,,,,,,,,,,001,2020_Feb_24_1313,so_be_u_00,3.2.4,58.88747428954753,
,,,,,,,,,,,,,,,,,,,,,,,,,,,,,,,,,,,,,,,,,6.993008900026325,None,6.993008900026325,None,None,None,None,,,,,,,,,,,,,,,,,,,,,,,,,,,,,,,,,,,,,,,,,,,,,,,,,,,,,,,,,,,,,,,,,,,,,,,,,,,,,,,,,,,,,,,,,,,,,,,,,,,001,2020_Feb_24_1313,so_be_u_00,3.2.4,58.88747428954753,
,,,,,,,,,,,,,,,,,,,,,,,,,,,,,,,,,,,,,,,,,,,,,,,,1,0.1702750999829732,6.993008900026325,None,,,,,,,,,,,,,,,,,,,,,,,,,,,,,,,,,,,,,,,,,,,,,,,,,,,,,,,,,,,,,,,,,,,,,,,,,,,,,,,,,,,,,,,,,,,,,,,001,2020_Feb_24_1313,so_be_u_00,3.2.4,58.88747428954753,
,,,,,,,,,,,,,,,,,,,,,,,,,,,,,,,,,,,,,,,,,,,,,,,,,,,,7.1800429000286385,None,7.1800429000286385,None,None,None,None,,,,,,,,,,,,,,,,,,,,,,,,,,,,,,,,,,,,,,,,,,,,,,,,,,,,,,,,,,,,,,,,,,,,,,,,,,,,,,,,,,,,,,,,001,2020_Feb_24_1313,so_be_u_00,3.2.4,58.88747428954753,
,,,,,,,,,,,,,,,,,,,,,,,,,,,,,,,,,,,,,,,,,,,,,,,,,,,,,,,,,,,1,0.15377029997762293,7.1800429000286385,None,,,,,,,,,,,,,,,,,,,,,,,,,,,,,,,,,,,,,,,,,,,,,,,,,,,,,,,,,,,,,,,,,,,,,,,,,,,,,,,,,,,,001,2020_Feb_24_1313,so_be_u_00,3.2.4,58.88747428954753,
,,,,,,,,,,0,0,0,0,,,,,,,,,,,,,,,,,,,,,,,,,,,,,,,,,,,,,,,,,,,,,,,,,,7.351955200021621,None,7.351955200021621,8.35502150002867,8.321078700013459,8.831344700010959,8.831344700010959,9.341699100041296,9.324561400047969,9.836603600007948,,,,,,,,,,,,,,,,,,,,,,,,,,,,,,,,,,,,,,,,,,,,,,,,,,,,,,,,,,,,,,,,,,,,,,,,,,001,2020_Feb_24_1313,so_be_u_00,3.2.4,58.88747428954753,
,,,,,,,,,,,,,,,,,,,,,,,,,,,,,,,,,,,,,,,,,,,,,,,,,,,,,,,,,,,,,,,,,,,,,,,,,9.853167200053576,None,10.022099900001194,10.329054800036829,10.329054800036829,10.535096400009934,10.535096400009934,10.636424100026488,10.636424100026488,10.772892500041053,10.772892500041053,10.926277700054925,10.926277700054925,11.07960890000686,11.07960890000686,11.181880600051954,11.181880600051954,11.674913900031243,11.674913900031243,12.185870800050907,12.185870800050907,12.696375500003342,12.679549200052861,13.191381800046656,13.174505800008774,13.329326600010972,13.891812000016216,None,14.077815300028306,None,None,None,None,,,,,,,,,,,,,,,,,,,,,,,,,,,,,,,,,,,,,,,,,001,2020_Feb_24_1313,so_be_u_00,3.2.4,58.88747428954753,
,,,,,,,,,,,,,,,,,,,,,,,,,,,,,,,,,,,,,,,,,,,,,,,,,,,,,,,,,,,,,,,,,,,,,,,,,,,,,,,,,,,,,,,,,,,,,,,,,,,,,,,,,,1,0.986337500042282,13.891812000016216,None,,,,,,,,,,,,,,,,,,,,,,,,,,,,,,,,,,,,,001,2020_Feb_24_1313,so_be_u_00,3.2.4,58.88747428954753,
Paul,images/avatar1.jpg,reciprocate,1,1,,,,,,,,,,0,0,0,0,0,0,0,0,,,,,,,,,,,,,,,,,,,,,,,,,,,,,,,,,,,,,,,,,,,,,,,,,,,,,,,,,,,,,,,,,,,,,,,,,,,,,,,,,,,,,,,,,15.08048790000612,None,15.08048790000612,None,15.08048790000612,None,5,29.763,"[('5', 0.0), ('8', 4.858), ('7', 6.759), ('8', 6.998), ('9', 7.357), ('8', 7.579), ('7', 9.062), ('8', 11.261), ('7', 14.052), ('6', 17.714), ('5', 22.055), ('4', 25.988), ('5', 27.432), ('5', 29.763)]",0.013636300049256533,None,right,28.284112500026822,15.08048790000612,None,44.84353340003872,None,5,45.37042680004379,None,45.37042680004379,None,None,45.37042680004379,None,47.360816800035536,None,47.53132560005179,48.04278240003623,,,,,,,,001,2020_Feb_24_1313,so_be_u_00,3.2.4,58.88747428954753,
Paul,images/avatar1.jpg,reciprocate,1,1,1,How much do you like Paul?,not at all,very much,1 2 3 4 5 6 7,,,,,0,0,0,0,,,,,0,0,0,0,,,,,,,,,,,,,,,,,,,,,,,,,,,,,,,,,,,,,,,,,,,,,,,,,,,,,,,,,,,,,,,,,,,,,,,,,,,,,,,,,,,,,,,,,,,,,,,,,,,,,,,,,,,,,,,,,,48.316989000013564,None,4,0.835,0.015011100040283054,None,,001,2020_Feb_24_1313,so_be_u_00,3.2.4,58.88747428954753,
Paul,images/avatar1.jpg,reciprocate,1,1,2,How much do you want to continue playing with Paul?,not at all,very much,1 2 3 4 5 6 7,,,,,0,0,0,0,,,,,0,1,1,1,,,,,,,,,,,,,,,,,,,,,,,,,,,,,,,,,,,,,,,,,,,,,,,,,,,,,,,,,,,,,,,,,,,,,,,,,,,,,,,,,,,,,,,,,,,,,,,,,,,,,,,,,,,,,,,,,,49.203411900030915,None,4,0.495,0.015351399953942746,None,,001,2020_Feb_24_1313,so_be_u_00,3.2.4,58.88747428954753,
Paul,images/avatar1.jpg,reciprocate,1,1,3,How much do you like Lukas?,not at all,very much,1 2 3 4 5 6 7,,,,,0,0,0,0,,,,,0,2,2,2,,,,,,,,,,,,,,,,,,,,,,,,,,,,,,,,,,,,,,,,,,,,,,,,,,,,,,,,,,,,,,,,,,,,,,,,,,,,,,,,,,,,,,,,,,,,,,,,,,,,,,,,,,,,,,,,,,49.746734800050035,None,4,0.802,1.179997343569994e-05,None,,001,2020_Feb_24_1313,so_be_u_00,3.2.4,58.88747428954753,
Paul,images/avatar1.jpg,reciprocate,1,1,4,How much do you want to continue playing with Lukas?,not at all,very much,1 2 3 4 5 6 7,,,,,0,0,0,0,,,,,0,3,3,3,,,,,,,,,,,,,,,,,,,,,,,,,,,,,,,,,,,,,,,,,,,,,,,,,,,,,,,,,,,,,,,,,,,,,,,,,,,,,,,,,,,,,,,,,,,,,,,,,,,,,,,,,,,,,,,,,,50.59886850003386,None,3,1.448,0.016524900041986257,None,,001,2020_Feb_24_1313,so_be_u_00,3.2.4,58.88747428954753,
Paul,images/avatar1.jpg,reciprocate,1,1,5,How do you feel?,negative,positive,1 2 3 4 5 6 7,,,,,0,0,0,0,,,,,0,4,4,4,,,,,,,,,,,,,,,,,,,,,,,,,,,,,,,,,,,,,,,,,,,,,,,,,,,,,,,,,,,,,,,,,,,,,,,,,,,,,,,,,,,,,,,,,,,,,,,,,,,,,,,,,,,,,,,,,,52.09555310005089,None,4,0.96,0.0046036000130698085,None,,001,2020_Feb_24_1313,so_be_u_00,3.2.4,58.88747428954753,
Paul,images/avatar1.jpg,reciprocate,1,1,6,How activated are you right now?,low,high,1 2 3 4 5 6 7,,,,,0,0,0,0,,,,,0,5,5,5,,,,,,,,,,,,,,,,,,,,,,,,,,,,,,,,,,,,,,,,,,,,,,,,,,,,,,,,,,,,,,,,,,,,,,,,,,,,,,,,,,,,,,,,,,,,,,,,,,,,,,,,,,,,,,,,,,53.09923920000438,None,4,0.653,0.0054098000400699675,None,,001,2020_Feb_24_1313,so_be_u_00,3.2.4,58.88747428954753,
Paul,images/avatar1.jpg,reciprocate,1,1,,,,,,,,,,0,0,0,0,,,,,,,,,0,0,0,0,,,,,,,,,,,,,,,,,,,,,,,,,,,,,,,,,,,,,,,,,,,,,,,,,,,,,,,,,,,,,,,,,,,,,,,,,,,,,,,,,,,,,,,,,,,,,,,,53.76340750005329,None,,,,,,,,,,,,,,,,,,,,001,2020_Feb_24_1313,so_be_u_00,3.2.4,58.88747428954753,
Paul,images/avatar1.jpg,reciprocate,1,1,,,,,,,,,,0,0,0,0,,,,,,,,,1,0,1,0,,,,,,,,,,,,,,,,,,,,,,,,,,,,,,,,,,,,,,,,,,,,,,,,,,,,,,,,,,,,,,,,,,,,,,,,,,,,,,,,,,,,,,,,,,,,,,,,54.275508400052786,None,,,,,,,,,,,,,,,,,,,,001,2020_Feb_24_1313,so_be_u_00,3.2.4,58.88747428954753,
Paul,images/avatar1.jpg,reciprocate,1,1,,,,,,,,,,0,0,0,0,,,,,,,,,2,0,2,0,,,,,,,,,,,,,,,,,,,,,,,,,,,,,,,,,,,,,,,,,,,,,,,,,,,,,,,,,,,,,,,,,,,,,,,,,,,,,,,,,,,,,,,,,,,,,,,,54.76881190005224,None,,,,,,,,,,,,,,,,,,,,001,2020_Feb_24_1313,so_be_u_00,3.2.4,58.88747428954753,
Paul,images/avatar1.jpg,reciprocate,1,1,,,,,,,,,,0,0,0,0,,,,,,,,,3,0,3,0,,,,,,,,,,,,,,,,,,,,,,,,,,,,,,,,,,,,,,,,,,,,,,,,,,,,,,,,,,,,,,,,,,,,,,,,,,,,,,,,,,,,,,,,,,,,,,,,55.27975680003874,None,,,,,,,,,,,,,,,,,,,,001,2020_Feb_24_1313,so_be_u_00,3.2.4,58.88747428954753,
Paul,images/avatar1.jpg,reciprocate,1,1,,,,,,,,,,0,0,0,0,,,,,,,,,,,,,,,,,,,,,,,,,,,,,,,,,,,,,,,,,,,,,,,,,,,,,,,,,,,,,,,,,,,,,,,,,,,,,,,,,,,,,,,,,,,,,,,,,,,,,,,,,,,,,,,,,,,,,,55.773937300022226,None,55.94296530005522,56.457048500014935,,,,,,,,001,2020_Feb_24_1313,so_be_u_00,3.2.4,58.88747428954753,
,,,,,,,,,,,,,,,,,,,,,,,,,,,,,,,,,,,,,,,,,,,,,,,,,,,,,,,,,,,,,,,,,,,,,,,,,,,,,,,,,,,,,,,,,,,,,,,,,,,,,,,,,,,,,,56.76701030001277,None,56.76701030001277,None,56.76701030001277,None,5,1.513,"[('5', 0.0), ('5', 1.513)]",0.011026600026525557,None,None,,56.76701030001277,None,58.29404400003841,None,,,,,,,,,,,,,,,,,,,,,,,,,
