playerId,avatarFile,choiceLabel,actionLabel,actionRound,sliderID,sliderText,sliderLabels,sliderMin,sliderMax,bufferLoop.thisRepN,bufferLoop.thisTrialN,bufferLoop.thisN,bufferLoop.thisIndex,trials.thisRepN,trials.thisTrialN,trials.thisN,trials.thisIndex,sbLoop.thisRepN,sbLoop.thisTrialN,sbLoop.thisN,sbLoop.thisIndex,sliders_1.thisRepN,sliders_1.thisTrialN,sliders_1.thisN,sliders_1.thisIndex,cB_1.started,cB_1.stopped,textWelcome.started,textWelcome.stopped,keyWelcome.keys,keyWelcome.rt,keyWelcome.started,keyWelcome.stopped,out_0.keys,out_0.started,out_0.stopped,cB_2.started,cB_2.stopped,textInstructions.started,textInstructions.stopped,keyInstructions.keys,keyInstructions.rt,keyInstructions.started,keyInstructions.stopped,out_1.keys,out_1.started,out_1.stopped,cB_3.started,cB_3.stopped,textServer.started,textServer.stopped,keyServer.keys,keyServer.started,keyServer.stopped,out_2.keys,out_2.rt,out_2.started,out_2.stopped,cB_4.started,cB_4.stopped,text_1.started,text_1.stopped,text_2.started,text_2.stopped,text_3.started,text_3.stopped,text_4.started,text_4.stopped,cB_5.started,cB_5.stopped,idle.started,idle.stopped,idle_2.started,idle_2.stopped,idle_3.started,idle_3.stopped,idle_4.started,idle_4.stopped,idle_5.started,idle_5.stopped,idle_6.started,idle_6.stopped,idle_7.started,idle_7.stopped,ilde_8.started,ilde_8.stopped,idle_9.started,idle_9.stopped,idle_10.started,idle_10.stopped,idle_11.started,idle_11.stopped,idle_12.started,idle_12.stopped,cB_6.started,cB_6.stopped,sBInstructions.started,sBInstructions.stopped,keySbInstructions.keys,keySbInstructions.started,keySbInstructions.stopped,out_sb.keys,out_sb.rt,out_sb.started,out_sb.stopped,cB_8.started,cB_8.stopped,text.started,text.stopped,imagesbRnd.started,imagesbRnd.stopped,Slider.response,Slider.rt,Slider.history,Slider.started,Slider.stopped,cB_9.started,cB_9.stopped,cbFb.started,cbFb.stopped,textFb.started,textFb.stopped,out_Fb.keys,out_Fb.rt,out_Fb.started,out_Fb.stopped,cbBuf.started,cbBuf.stopped,fixCross.started,fixCross.stopped,cB_11.started,cB_11.stopped,rating.response,rating.rt,rating.started,rating.stopped,participant,session,date,expName,psychopyVersion,frameRate,
,,,,,,,,,,,,,,,,,,,,,,,,,,6.32482009998057,None,6.32482009998057,None,right,1.1593263000249863,8.302464700012933,None,,,,,,,,,,,,,,,,,,,,,,,,,,,,,,,,,,,,,,,,,,,,,,,,,,,,,,,,,,,,,,,,,,,,,,,,,,,,,,,,,,,,,,,,,,,,,,,,,,,,,,,,,001,2020_Feb_24_1039,so_be_u_00,3.2.4,58.78970804833317,
,,,,,,,,,,,,,,,,,,,,,,,,,,,,,,,,,,None,6.32482009998057,None,,,,,,,,,,,,,,,,,,,,,,,,,,,,,,,,,,,,,,,,,,,,,,,,,,,,,,,,,,,,,,,,,,,,,,,,,,,,,,,,,,,,,,,,,,,,,,,,,,,,,,001,2020_Feb_24_1039,so_be_u_00,3.2.4,58.78970804833317,
,,,,,,,,,,,,,,,,,,,,,,,,,,,,,,,,,,,,,9.47793420002563,None,9.47793420002563,None,c,0.16994370002066717,11.457355900027324,None,,,,,,,,,,,,,,,,,,,,,,,,,,,,,,,,,,,,,,,,,,,,,,,,,,,,,,,,,,,,,,,,,,,,,,,,,,,,,,,,,,,,,,,,,,,,,,001,2020_Feb_24_1039,so_be_u_00,3.2.4,58.78970804833317,
,,,,,,,,,,,,,,,,,,,,,,,,,,,,,,,,,,,,,,,,,,,,,None,9.47793420002563,None,,,,,,,,,,,,,,,,,,,,,,,,,,,,,,,,,,,,,,,,,,,,,,,,,,,,,,,,,,,,,,,,,,,,,,,,,,,,,,,,,,,,,,,,,,,001,2020_Feb_24_1039,so_be_u_00,3.2.4,58.78970804833317,
,,,,,,,,,,,,,,,,,,,,,,,,,,,,,,,,,,,,,,,,,,,,,,,,11.643783700012136,None,11.643783700012136,None,None,None,None,,,,,,,,,,,,,,,,,,,,,,,,,,,,,,,,,,,,,,,,,,,,,,,,,,,,,,,,,,,,,,,,,,,,,,,,,,,,,,,,,,,,001,2020_Feb_24_1039,so_be_u_00,3.2.4,58.78970804833317,
,,,,,,,,,,,,,,,,,,,,,,,,,,,,,,,,,,,,,,,,,,,,,,,,,,,,,,,1,0.6304657000000589,11.643783700012136,None,,,,,,,,,,,,,,,,,,,,,,,,,,,,,,,,,,,,,,,,,,,,,,,,,,,,,,,,,,,,,,,,,,,,,,,,,,,,,,,,001,2020_Feb_24_1039,so_be_u_00,3.2.4,58.78970804833317,
,,,,,,,,,,0,0,0,0,,,,,,,,,,,,,,,,,,,,,,,,,,,,,,,,,,,,,,,,,,,,,,12.29059370001778,None,12.29059370001778,13.297543000022415,13.263604699983262,13.774163299996872,13.774163299996872,14.272876600036398,14.272876600036398,14.782751000020653,,,,,,,,,,,,,,,,,,,,,,,,,,,,,,,,,,,,,,,,,,,,,,,,,,,,,,,,,,,,,,,,,,,,,,001,2020_Feb_24_1039,so_be_u_00,3.2.4,58.78970804833317,
,,,,,,,,,,,,,,,,,,,,,,,,,,,,,,,,,,,,,,,,,,,,,,,,,,,,,,,,,,,,,,,,,,,,,14.799718700000085,None,14.972158399992622,15.27826210000785,15.27826210000785,15.483601799991447,15.483601799991447,15.568947400024626,15.568947400024626,15.722905300033744,15.722905300033744,15.875557299994398,15.875557299994398,16.029417900019325,16.029417900019325,16.132441100024153,16.132441100024153,16.628274400020018,16.628274400020018,17.14116559998365,17.124159099999815,17.638999700022396,17.62228110001888,18.132630900014192,18.132630900014192,18.27079630002845,18.797965899982955,None,18.970911399985198,None,None,None,None,,,,,,,,,,,,,,,,,,,,,,,,,,,,,,,,,,,,,001,2020_Feb_24_1039,so_be_u_00,3.2.4,58.78970804833317,
,,,,,,,,,,,,,,,,,,,,,,,,,,,,,,,,,,,,,,,,,,,,,,,,,,,,,,,,,,,,,,,,,,,,,,,,,,,,,,,,,,,,,,,,,,,,,,,,,,,,,,1,1.124719399958849,18.797965899982955,None,,,,,,,,,,,,,,,,,,,,,,,,,,,,,,,,,001,2020_Feb_24_1039,so_be_u_00,3.2.4,58.78970804833317,
Lukas,images/avatar2.jpg,reciprocate,1,1,,,,,,,,,,0,0,0,15,0,0,0,11,,,,,,,,,,,,,,,,,,,,,,,,,,,,,,,,,,,,,,,,,,,,,,,,,,,,,,,,,,,,,,,,,,,,,,,,,,,,,,,,,,,,,20.05816270003561,None,20.05816270003561,None,20.05816270003561,None,4,1.706,"[('5', 0.0), ('4', 1.4), ('4', 1.706)]",0.002913300006184727,None,21.760194000031333,None,22.28731179999886,None,22.28731179999886,None,1,0.9382464999798685,22.28731179999886,None,23.2421456000302,None,23.411983600002714,23.92317040002672,,,,,,,,001,2020_Feb_24_1039,so_be_u_00,3.2.4,58.78970804833317,
Lukas,images/avatar2.jpg,keep the investment,0,1,,,,,,,,,,0,0,0,15,0,1,1,13,,,,,,,,,,,,,,,,,,,,,,,,,,,,,,,,,,,,,,,,,,,,,,,,,,,,,,,,,,,,,,,,,,,,,,,,,,,,,,,,,,,,,24.16171930002747,None,24.16171930002747,None,24.16171930002747,None,4,0.77,"[('5', 0.0), ('4', 0.495), ('4', 0.769)]",0.015277700033038855,None,24.94660730002215,None,25.47406899998896,None,25.47406899998896,None,None,,25.47406899998896,None,27.453285499999765,None,27.623253800033126,28.136002200015355,,,,,,,,001,2020_Feb_24_1039,so_be_u_00,3.2.4,58.78970804833317,
Paul,images/avatar1.jpg,keep the investment,0,1,,,,,,,,,,0,0,0,15,0,2,2,7,,,,,,,,,,,,,,,,,,,,,,,,,,,,,,,,,,,,,,,,,,,,,,,,,,,,,,,,,,,,,,,,,,,,,,,,,,,,,,,,,,,,,28.47474360000342,None,28.47474360000342,None,28.47474360000342,None,5,1.022,"[('5', 0.0), ('5', 1.022)]",0.003778750018682331,None,29.513045100029558,None,30.04193960002158,None,30.04193960002158,None,None,,30.04193960002158,None,32.01841479999712,None,32.189596500014886,32.70158910000464,,,,,,,,001,2020_Feb_24_1039,so_be_u_00,3.2.4,58.78970804833317,
Lukas,images/avatar2.jpg,keep the investment,0,1,,,,,,,,,,0,0,0,15,0,3,3,17,,,,,,,,,,,,,,,,,,,,,,,,,,,,,,,,,,,,,,,,,,,,,,,,,,,,,,,,,,,,,,,,,,,,,,,,,,,,,,,,,,,,,32.9561948000337,None,32.9561948000337,None,32.9561948000337,None,5,0.686,"[('5', 0.0), ('5', 0.686)]",0.0033112000091932714,None,33.653941399999894,None,34.181762300024275,None,34.181762300024275,None,None,,34.181762300024275,None,36.16047459997935,None,36.333426300028805,36.84372010000516,,,,,,,,001,2020_Feb_24_1039,so_be_u_00,3.2.4,58.78970804833317,
Paul,images/avatar1.jpg,reciprocate,1,1,,,,,,,,,,0,0,0,15,0,4,4,2,,,,,,,,,,,,,,,,,,,,,,,,,,,,,,,,,,,,,,,,,,,,,,,,,,,,,,,,,,,,,,,,,,,,,,,,,,,,,,,,,,,,,37.133886700030416,None,37.133886700030416,None,37.133886700030416,None,5,0.726,"[('5', 0.0), ('5', 0.726)]",0.012386999966111034,None,37.86770569998771,None,38.396282300003804,None,38.396282300003804,None,None,,38.396282300003804,None,40.373079899989534,None,40.543352300010156,41.053620200022124,,,,,,,,001,2020_Feb_24_1039,so_be_u_00,3.2.4,58.78970804833317,
Paul,images/avatar1.jpg,keep the investment,0,1,,,,,,,,,,0,0,0,15,0,5,5,6,,,,,,,,,,,,,,,,,,,,,,,,,,,,,,,,,,,,,,,,,,,,,,,,,,,,,,,,,,,,,,,,,,,,,,,,,,,,,,,,,,,,,41.32596019998891,None,41.32596019998891,None,41.32596019998891,None,5,0.447,"[('5', 0.0), ('5', 0.447)]",0.0022895499714650214,None,41.78574830002617,None,42.31369209999684,None,42.31369209999684,None,None,,42.31369209999684,None,44.29398900002707,None,44.465100300032645,44.97691580001265,,,,,,,,001,2020_Feb_24_1039,so_be_u_00,3.2.4,58.78970804833317,
Paul,images/avatar1.jpg,reciprocate,1,1,,,,,,,,,,0,0,0,15,0,6,6,5,,,,,,,,,,,,,,,,,,,,,,,,,,,,,,,,,,,,,,,,,,,,,,,,,,,,,,,,,,,,,,,,,,,,,,,,,,,,,,,,,,,,,45.249494799994864,None,45.249494799994864,None,45.249494799994864,None,5,0.653,"[('5', 0.0), ('5', 0.653)]",0.0027539499569684267,None,45.91441590001341,None,46.44040000002133,None,46.44040000002133,None,None,,46.44040000002133,None,48.41893230000278,None,48.58922060002806,49.1016144999885,,,,,,,,001,2020_Feb_24_1039,so_be_u_00,3.2.4,58.78970804833317,
Lukas,images/avatar2.jpg,reciprocate,1,1,,,,,,,,,,0,0,0,15,0,7,7,10,,,,,,,,,,,,,,,,,,,,,,,,,,,,,,,,,,,,,,,,,,,,,,,,,,,,,,,,,,,,,,,,,,,,,,,,,,,,,,,,,,,,,49.39625510002952,None,49.39625510002952,None,49.39625510002952,None,5,0.969,"[('5', 0.0), ('5', 0.969)]",0.015816049941349775,None,50.38030540000182,None,50.91075199999614,None,50.91075199999614,None,None,,50.91075199999614,None,52.88949650002178,None,53.06188100000145,53.57101319998037,,,,,,,,001,2020_Feb_24_1039,so_be_u_00,3.2.4,58.78970804833317,
Paul,images/avatar1.jpg,reciprocate,1,1,,,,,,,,,,0,0,0,15,0,8,8,1,,,,,,,,,,,,,,,,,,,,,,,,,,,,,,,,,,,,,,,,,,,,,,,,,,,,,,,,,,,,,,,,,,,,,,,,,,,,,,,,,,,,,53.86023160000332,None,53.86023160000332,None,53.86023160000332,None,5,0.64,"[('5', 0.0), ('5', 0.64)]",0.011167999997269362,None,54.507295400020666,None,55.036805999989156,None,55.036805999989156,None,None,,55.036805999989156,None,57.012090599979274,None,57.18212349998066,57.694566900026985,,,,,,,,001,2020_Feb_24_1039,so_be_u_00,3.2.4,58.78970804833317,
Lukas,images/avatar2.jpg,reciprocate,1,1,,,,,,,,,,0,0,0,15,0,9,9,9,,,,,,,,,,,,,,,,,,,,,,,,,,,,,,,,,,,,,,,,,,,,,,,,,,,,,,,,,,,,,,,,,,,,,,,,,,,,,,,,,,,,,57.94839490001323,None,57.94839490001323,None,57.94839490001323,None,5,0.591,"[('5', 0.0), ('5', 0.591)]",0.010488700005225837,None,58.54694000002928,None,59.07520190003561,None,59.07520190003561,None,None,,59.07520190003561,None,61.053714699984994,None,61.226760099991225,61.73619389999658,,,,,,,,001,2020_Feb_24_1039,so_be_u_00,3.2.4,58.78970804833317,
Lukas,images/avatar2.jpg,keep the investment,0,1,,,,,,,,,,0,0,0,15,0,10,10,12,,,,,,,,,,,,,,,,,,,,,,,,,,,,,,,,,,,,,,,,,,,,,,,,,,,,,,,,,,,,,,,,,,,,,,,,,,,,,,,,,,,,,61.97477169998456,None,61.97477169998456,None,61.97477169998456,None,5,0.446,"[('5', 0.0), ('5', 0.446)]",0.0024045499740168452,None,62.433693400002085,None,62.96233549999306,None,62.96233549999306,None,None,,62.96233549999306,None,64.94139130000258,None,65.10947820002912,65.62102369999047,,,,,,,,001,2020_Feb_24_1039,so_be_u_00,3.2.4,58.78970804833317,
Paul,images/avatar1.jpg,reciprocate,1,1,,,,,,,,,,0,0,0,15,0,11,11,0,,,,,,,,,,,,,,,,,,,,,,,,,,,,,,,,,,,,,,,,,,,,,,,,,,,,,,,,,,,,,,,,,,,,,,,,,,,,,,,,,,,,,65.9095815999899,None,65.9095815999899,None,65.9095815999899,None,5,0.469,"[('5', 0.0), ('5', 0.469)]",0.012314299936406314,None,66.38649850001093,None,66.91590030002408,None,66.91590030002408,None,None,,66.91590030002408,None,68.89647330000298,None,69.06645749998279,69.57802250003442,,,,,,,,001,2020_Feb_24_1039,so_be_u_00,3.2.4,58.78970804833317,
Paul,images/avatar1.jpg,reciprocate,1,1,,,,,,,,,,0,0,0,15,0,12,12,3,,,,,,,,,,,,,,,,,,,,,,,,,,,,,,,,,,,,,,,,,,,,,,,,,,,,,,,,,,,,,,,,,,,,,,,,,,,,,,,,,,,,,69.85139269998763,None,69.85139269998763,None,69.85139269998763,None,5,0.822,"[('5', 0.0), ('5', 0.822)]",0.0018374500214122236,None,70.68741369998315,None,71.19989749998786,None,71.19989749998786,None,None,,71.19989749998786,None,73.19360689999303,None,73.36447410000255,73.8761552000069,,,,,,,,001,2020_Feb_24_1039,so_be_u_00,3.2.4,58.78970804833317,
Paul,images/avatar1.jpg,keep the investment,0,1,,,,,,,,,,0,0,0,15,0,13,13,8,,,,,,,,,,,,,,,,,,,,,,,,,,,,,,,,,,,,,,,,,,,,,,,,,,,,,,,,,,,,,,,,,,,,,,,,,,,,,,,,,,,,,74.1497512999922,None,74.1497512999922,None,74.1497512999922,None,5,0.909,"[('5', 0.0), ('5', 0.909)]",0.0036114499671384692,None,75.07139679999091,None,75.59779760002857,None,75.59779760002857,None,None,,75.59779760002857,None,77.57604890002403,None,77.74606430000858,78.25562569999602,,,,,,,,001,2020_Feb_24_1039,so_be_u_00,3.2.4,58.78970804833317,
Lukas,images/avatar2.jpg,keep the investment,0,1,,,,,,,,,,0,0,0,15,0,14,14,15,,,,,,,,,,,,,,,,,,,,,,,,,,,,,,,,,,,,,,,,,,,,,,,,,,,,,,,,,,,,,,,,,,,,,,,,,,,,,,,,,,,,,78.54468769999221,None,78.54468769999221,None,78.54468769999221,None,5,0.996,"[('5', 0.0), ('5', 0.996)]",0.009090300009120256,None,79.55105210002512,None,80.07945170003222,None,80.07945170003222,None,None,,80.07945170003222,None,82.0551716000191,None,82.22600790002616,82.73804560001008,,,,,,,,001,2020_Feb_24_1039,so_be_u_00,3.2.4,58.78970804833317,
Lukas,images/avatar2.jpg,keep the investment,0,1,,,,,,,,,,0,0,0,15,0,15,15,16,,,,,,,,,,,,,,,,,,,,,,,,,,,,,,,,,,,,,,,,,,,,,,,,,,,,,,,,,,,,,,,,,,,,,,,,,,,,,,,,,,,,,82.97601440001745,None,82.97601440001745,None,82.97601440001745,None,5,0.449,"[('5', 0.0), ('5', 0.449)]",0.002115549985319376,None,83.43761120003182,None,83.94713689998025,None,83.94713689998025,None,None,,83.94713689998025,None,85.94075300003169,None,86.11113340000156,86.62207029998535,,,,,,,,001,2020_Feb_24_1039,so_be_u_00,3.2.4,58.78970804833317,
Lukas,images/avatar2.jpg,keep the investment,0,1,,,,,,,,,,0,0,0,15,0,16,16,14,,,,,,,,,,,,,,,,,,,,,,,,,,,,,,,,,,,,,,,,,,,,,,,,,,,,,,,,,,,,,,,,,,,,,,,,,,,,,,,,,,,,,86.86106590001145,None,86.86106590001145,None,86.86106590001145,None,5,0.772,"[('5', 0.0), ('5', 0.772)]",0.002738450013566762,None,87.64434790000087,None,88.15547300002072,None,88.15547300002072,None,None,,88.15547300002072,None,90.15254280000227,None,90.32216829998652,90.83545439998852,,,,,,,,001,2020_Feb_24_1039,so_be_u_00,3.2.4,58.78970804833317,
Lukas,images/avatar2.jpg,keep the investment,0,1,,,,,,,,,,0,0,0,15,0,17,17,18,,,,,,,,,,,,,,,,,,,,,,,,,,,,,,,,,,,,,,,,,,,,,,,,,,,,,,,,,,,,,,,,,,,,,,,,,,,,,,,,,,,,,91.07403329998488,None,91.07403329998488,None,91.07403329998488,None,5,0.518,"[('5', 0.0), ('5', 0.518)]",0.0022102499497123063,None,91.60188600001857,None,92.11358569998993,None,92.11358569998993,None,None,,92.11358569998993,None,94.1094657999929,None,94.28025369998068,94.79233750002459,,,,,,,,001,2020_Feb_24_1039,so_be_u_00,3.2.4,58.78970804833317,
Paul,images/avatar1.jpg,reciprocate,1,1,,,,,,,,,,0,0,0,15,0,18,18,4,,,,,,,,,,,,,,,,,,,,,,,,,,,,,,,,,,,,,,,,,,,,,,,,,,,,,,,,,,,,,,,,,,,,,,,,,,,,,,,,,,,,,95.09914250002475,None,95.09914250002475,None,95.09914250002475,None,5,0.418,"[('5', 0.0), ('5', 0.418)]",0.011167649936396629,None,95.52562369999941,None,96.05535300000338,None,96.05535300000338,None,None,,96.05535300000338,None,98.03362860000925,None,98.20569209998939,98.7170913000009,,,,,,,,001,2020_Feb_24_1039,so_be_u_00,3.2.4,58.78970804833317,
Lukas,images/avatar2.jpg,keep the investment,0,1,3,How much do you like Lukas?,"not at all, very much",1,7,,,,,0,0,0,15,,,,,0,0,0,2,,,,,,,,,,,,,,,,,,,,,,,,,,,,,,,,,,,,,,,,,,,,,,,,,,,,,,,,,,,,,,,,,,,,,,,,,,,,,,,,,,,,,,,,,,,,,,,,,,,,,,,,,,98.95573280000826,99.4666379999835,6,4.85,0.0024578499724157155,None,,001,2020_Feb_24_1039,so_be_u_00,3.2.4,58.78970804833317,
Lukas,images/avatar2.jpg,keep the investment,0,1,2,How much do you want to continue playing with Paul?,"not at all, very much",1,7,,,,,0,0,0,15,,,,,0,1,1,1,,,,,,,,,,,,,,,,,,,,,,,,,,,,,,,,,,,,,,,,,,,,,,,,,,,,,,,,,,,,,,,,,,,,,,,,,,,,,,,,,,,,,,,,,,,,,,,,,,,,,,,,,,103.82169290003367,104.33170919999247,2,1.785,0.009936049988027662,None,,001,2020_Feb_24_1039,so_be_u_00,3.2.4,58.78970804833317,
Lukas,images/avatar2.jpg,keep the investment,0,1,6,How activated are you right now?,"low, high",1,7,,,,,0,0,0,15,,,,,0,2,2,5,,,,,,,,,,,,,,,,,,,,,,,,,,,,,,,,,,,,,,,,,,,,,,,,,,,,,,,,,,,,,,,,,,,,,,,,,,,,,,,,,,,,,,,,,,,,,,,,,,,,,,,,,,105.62773000000743,106.1358144999831,2,1.375,0.009930250002071261,None,,001,2020_Feb_24_1039,so_be_u_00,3.2.4,58.78970804833317,
Lukas,images/avatar2.jpg,keep the investment,0,1,1,How much do you like Paul?,"not at all, very much",1,7,,,,,0,0,0,15,,,,,0,3,3,0,,,,,,,,,,,,,,,,,,,,,,,,,,,,,,,,,,,,,,,,,,,,,,,,,,,,,,,,,,,,,,,,,,,,,,,,,,,,,,,,,,,,,,,,,,,,,,,,,,,,,,,,,,107.025231000036,107.53269449999789,2,1.004,0.010041249974165112,None,,001,2020_Feb_24_1039,so_be_u_00,3.2.4,58.78970804833317,
Lukas,images/avatar2.jpg,keep the investment,0,1,4,How much do you want to continue playing with Lukas?,"not at all, very much",1,7,,,,,0,0,0,15,,,,,0,4,4,3,,,,,,,,,,,,,,,,,,,,,,,,,,,,,,,,,,,,,,,,,,,,,,,,,,,,,,,,,,,,,,,,,,,,,,,,,,,,,,,,,,,,,,,,,,,,,,,,,,,,,,,,,,108.05326120002428,108.5571696999832,6,1.083,0.01020595000591129,None,,001,2020_Feb_24_1039,so_be_u_00,3.2.4,58.78970804833317,
Lukas,images/avatar2.jpg,keep the investment,0,1,5,How do you feel?,"negative, positive",1,7,,,,,0,0,0,15,,,,,0,5,5,4,,,,,,,,,,,,,,,,,,,,,,,,,,,,,,,,,,,,,,,,,,,,,,,,,,,,,,,,,,,,,,,,,,,,,,,,,,,,,,,,,,,,,,,,,,,,,,,,,,,,,,,,,,109.15653859998565,109.66426679998403,5,1.051,0.010361349966842681,None,,001,2020_Feb_24_1039,so_be_u_00,3.2.4,58.78970804833317,
Lukas,images/avatar2.jpg,keep the investment,0,1,1,How much do you like Paul?,"not at all, very much",1,7,,,,,0,0,0,15,,,,,1,0,6,0,,,,,,,,,,,,,,,,,,,,,,,,,,,,,,,,,,,,,,,,,,,,,,,,,,,,,,,,,,,,,,,,,,,,,,,,,,,,,,,,,,,,,,,,,,,,,,,,,,,,,,,,,,110.23149350000313,110.73756630002754,5,1.017,0.010049749922472984,None,,001,2020_Feb_24_1039,so_be_u_00,3.2.4,58.78970804833317,
Lukas,images/avatar2.jpg,keep the investment,0,1,6,How activated are you right now?,"low, high",1,7,,,,,0,0,0,15,,,,,1,1,7,5,,,,,,,,,,,,,,,,,,,,,,,,,,,,,,,,,,,,,,,,,,,,,,,,,,,,,,,,,,,,,,,,,,,,,,,,,,,,,,,,,,,,,,,,,,,,,,,,,,,,,,,,,,111.26973619998898,111.7782378999982,5,0.97,0.010165849991608411,None,,001,2020_Feb_24_1039,so_be_u_00,3.2.4,58.78970804833317,
Lukas,images/avatar2.jpg,keep the investment,0,1,5,How do you feel?,"negative, positive",1,7,,,,,0,0,0,15,,,,,1,2,8,4,,,,,,,,,,,,,,,,,,,,,,,,,,,,,,,,,,,,,,,,,,,,,,,,,,,,,,,,,,,,,,,,,,,,,,,,,,,,,,,,,,,,,,,,,,,,,,,,,,,,,,,,,,112.26065920002293,112.76968179998221,5,1.358,0.01005924999481067,None,,001,2020_Feb_24_1039,so_be_u_00,3.2.4,58.78970804833317,
Lukas,images/avatar2.jpg,keep the investment,0,1,2,How much do you want to continue playing with Paul?,"not at all, very much",1,7,,,,,0,0,0,15,,,,,1,3,9,1,,,,,,,,,,,,,,,,,,,,,,,,,,,,,,,,,,,,,,,,,,,,,,,,,,,,,,,,,,,,,,,,,,,,,,,,,,,,,,,,,,,,,,,,,,,,,,,,,,,,,,,,,,113.64272260002326,114.15038710000226,5,1.393,0.009307149972300977,None,,001,2020_Feb_24_1039,so_be_u_00,3.2.4,58.78970804833317,
Lukas,images/avatar2.jpg,keep the investment,0,1,4,How much do you want to continue playing with Lukas?,"not at all, very much",1,7,,,,,0,0,0,15,,,,,1,4,10,3,,,,,,,,,,,,,,,,,,,,,,,,,,,,,,,,,,,,,,,,,,,,,,,,,,,,,,,,,,,,,,,,,,,,,,,,,,,,,,,,,,,,,,,,,,,,,,,,,,,,,,,,,,115.05792099999962,115.56556880002609,5,1.256,0.009797949984204024,None,,001,2020_Feb_24_1039,so_be_u_00,3.2.4,58.78970804833317,
Lukas,images/avatar2.jpg,keep the investment,0,1,3,How much do you like Lukas?,"not at all, very much",1,7,,,,,0,0,0,15,,,,,1,5,11,2,,,,,,,,,,,,,,,,,,,,,,,,,,,,,,,,,,,,,,,,,,,,,,,,,,,,,,,,,,,,,,,,,,,,,,,,,,,,,,,,,,,,,,,,,,,,,,,,,,,,,,,,,,116.33557230001315,116.84516440000152,3,1.341,0.010193449968937784,None,,001,2020_Feb_24_1039,so_be_u_00,3.2.4,58.78970804833317,
Lukas,images/avatar2.jpg,keep the investment,0,1,1,How much do you like Paul?,"not at all, very much",1,7,,,,,0,0,0,15,,,,,2,0,12,0,,,,,,,,,,,,,,,,,,,,,,,,,,,,,,,,,,,,,,,,,,,,,,,,,,,,,,,,,,,,,,,,,,,,,,,,,,,,,,,,,,,,,,,,,,,,,,,,,,,,,,,,,,117.70038029999705,118.20618390000891,3,1.054,0.010319049993995577,None,,001,2020_Feb_24_1039,so_be_u_00,3.2.4,58.78970804833317,
Lukas,images/avatar2.jpg,keep the investment,0,1,6,How activated are you right now?,"low, high",1,7,,,,,0,0,0,15,,,,,2,1,13,5,,,,,,,,,,,,,,,,,,,,,,,,,,,,,,,,,,,,,,,,,,,,,,,,,,,,,,,,,,,,,,,,,,,,,,,,,,,,,,,,,,,,,,,,,,,,,,,,,,,,,,,,,,118.77379669999937,119.28265140001895,3,0.747,0.010062549961730838,None,,001,2020_Feb_24_1039,so_be_u_00,3.2.4,58.78970804833317,
Lukas,images/avatar2.jpg,keep the investment,0,1,3,How much do you like Lukas?,"not at all, very much",1,7,,,,,0,0,0,15,,,,,2,2,14,2,,,,,,,,,,,,,,,,,,,,,,,,,,,,,,,,,,,,,,,,,,,,,,,,,,,,,,,,,,,,,,,,,,,,,,,,,,,,,,,,,,,,,,,,,,,,,,,,,,,,,,,,,,119.54299119999632,120.04913470003521,3,0.71,0.009999450005125254,None,,001,2020_Feb_24_1039,so_be_u_00,3.2.4,58.78970804833317,
Lukas,images/avatar2.jpg,keep the investment,0,1,4,How much do you want to continue playing with Lukas?,"not at all, very much",1,7,,,,,0,0,0,15,,,,,2,3,15,3,,,,,,,,,,,,,,,,,,,,,,,,,,,,,,,,,,,,,,,,,,,,,,,,,,,,,,,,,,,,,,,,,,,,,,,,,,,,,,,,,,,,,,,,,,,,,,,,,,,,,,,,,,120.27396010002121,120.7829043000238,3,0.626,0.010143949941266328,None,,001,2020_Feb_24_1039,so_be_u_00,3.2.4,58.78970804833317,
Lukas,images/avatar2.jpg,keep the investment,0,1,2,How much do you want to continue playing with Paul?,"not at all, very much",1,7,,,,,0,0,0,15,,,,,2,4,16,1,,,,,,,,,,,,,,,,,,,,,,,,,,,,,,,,,,,,,,,,,,,,,,,,,,,,,,,,,,,,,,,,,,,,,,,,,,,,,,,,,,,,,,,,,,,,,,,,,,,,,,,,,,120.92215240001678,121.43007050000597,3,0.745,0.009624549944419414,None,,001,2020_Feb_24_1039,so_be_u_00,3.2.4,58.78970804833317,
Lukas,images/avatar2.jpg,keep the investment,0,1,5,How do you feel?,"negative, positive",1,7,,,,,0,0,0,15,,,,,2,5,17,4,,,,,,,,,,,,,,,,,,,,,,,,,,,,,,,,,,,,,,,,,,,,,,,,,,,,,,,,,,,,,,,,,,,,,,,,,,,,,,,,,,,,,,,,,,,,,,,,,,,,,,,,,,121.6897636000067,122.19733799999813,3,0.676,0.00995254993904382,None,,001,2020_Feb_24_1039,so_be_u_00,3.2.4,58.78970804833317,
Lukas,images/avatar2.jpg,keep the investment,0,1,1,How much do you like Paul?,"not at all, very much",1,7,,,,,0,0,0,15,,,,,3,0,18,0,,,,,,,,,,,,,,,,,,,,,,,,,,,,,,,,,,,,,,,,,,,,,,,,,,,,,,,,,,,,,,,,,,,,,,,,,,,,,,,,,,,,,,,,,,,,,,,,,,,,,,,,,,122.38765809999313,122.89549820002867,4,0.624,0.00982074998319149,None,,001,2020_Feb_24_1039,so_be_u_00,3.2.4,58.78970804833317,
