playerId,avatarFile,choiceLabel,actionLabel,actionRound,sliderID,sliderText,sliderMin,sliderMax,sliderChoices,bufferLoop.thisRepN,bufferLoop.thisTrialN,bufferLoop.thisN,bufferLoop.thisIndex,trials.thisRepN,trials.thisTrialN,trials.thisN,trials.thisIndex,sbLoop.thisRepN,sbLoop.thisTrialN,sbLoop.thisN,sbLoop.thisIndex,sliders_1.thisRepN,sliders_1.thisTrialN,sliders_1.thisN,sliders_1.thisIndex,trials_2.thisRepN,trials_2.thisTrialN,trials_2.thisN,trials_2.thisIndex,cB_1.started,cB_1.stopped,textWelcome.started,textWelcome.stopped,keyWelcome.keys,keyWelcome.started,keyWelcome.stopped,out_0.keys,out_0.rt,out_0.started,out_0.stopped,cB_2.started,cB_2.stopped,textInstructions.started,textInstructions.stopped,keyInstructions.keys,keyInstructions.started,keyInstructions.stopped,out_1.keys,out_1.rt,out_1.started,out_1.stopped,cB_3.started,cB_3.stopped,textServer.started,textServer.stopped,keyServer.keys,keyServer.started,keyServer.stopped,out_2.keys,out_2.rt,out_2.started,out_2.stopped,cB_4.started,cB_4.stopped,text_1.started,text_1.stopped,text_2.started,text_2.stopped,text_3.started,text_3.stopped,text_4.started,text_4.stopped,cB_5.started,cB_5.stopped,idle.started,idle.stopped,idle_2.started,idle_2.stopped,idle_3.started,idle_3.stopped,idle_4.started,idle_4.stopped,idle_5.started,idle_5.stopped,idle_6.started,idle_6.stopped,idle_7.started,idle_7.stopped,ilde_8.started,ilde_8.stopped,idle_9.started,idle_9.stopped,idle_10.started,idle_10.stopped,idle_11.started,idle_11.stopped,idle_12.started,idle_12.stopped,cB_6.started,cB_6.stopped,sBInstructions.started,sBInstructions.stopped,keySbInstructions.keys,keySbInstructions.started,keySbInstructions.stopped,out_sb.keys,out_sb.rt,out_sb.started,out_sb.stopped,cB_8.started,cB_8.stopped,text.started,text.stopped,imagesbRnd.started,imagesbRnd.stopped,sbChoice.response,sbChoice.rt,sbChoice.history,sbChoice.started,sbChoice.stopped,cB_9.started,cB_9.stopped,totalMoney,paulMoney,lukasMoney,cbFb.started,cbFb.stopped,textFb.started,textFb.stopped,out_Fb.keys,out_Fb.started,out_Fb.stopped,cbBuf.started,cbBuf.stopped,fixCross.started,fixCross.stopped,cB_11.started,cB_11.stopped,rating.response,rating.rt,rating.started,rating.stopped,participant,session,date,expName,psychopyVersion,frameRate,
,,,,,,,,,,,,,,,,,,,,,,,,,,,,,,6.343937900033779,None,6.343937900033779,None,None,None,None,,,,,,,,,,,,,,,,,,,,,,,,,,,,,,,,,,,,,,,,,,,,,,,,,,,,,,,,,,,,,,,,,,,,,,,,,,,,,,,,,,,,,,,,,,,,,,,,,,,,,,,,,,,,001,2020_Feb_24_1331,so_be_u_00,3.2.4,58.75012632271013,
,,,,,,,,,,,,,,,,,,,,,,,,,,,,,,,,,,,,,1,1.584625400020741,6.343937900033779,None,,,,,,,,,,,,,,,,,,,,,,,,,,,,,,,,,,,,,,,,,,,,,,,,,,,,,,,,,,,,,,,,,,,,,,,,,,,,,,,,,,,,,,,,,,,,,,,,,,,,,,,,001,2020_Feb_24_1331,so_be_u_00,3.2.4,58.75012632271013,
,,,,,,,,,,,,,,,,,,,,,,,,,,,,,,,,,,,,,,,,,7.944676300045103,None,7.944676300045103,None,None,9.917733500013128,None,,,,,,,,,,,,,,,,,,,,,,,,,,,,,,,,,,,,,,,,,,,,,,,,,,,,,,,,,,,,,,,,,,,,,,,,,,,,,,,,,,,,,,,,,,,,,,,,,001,2020_Feb_24_1331,so_be_u_00,3.2.4,58.75012632271013,
,,,,,,,,,,,,,,,,,,,,,,,,,,,,,,,,,,,,,,,,,,,,,,,,1,3.2659754999913275,7.944676300045103,None,,,,,,,,,,,,,,,,,,,,,,,,,,,,,,,,,,,,,,,,,,,,,,,,,,,,,,,,,,,,,,,,,,,,,,,,,,,,,,,,,,,,,,,,,,,,,001,2020_Feb_24_1331,so_be_u_00,3.2.4,58.75012632271013,
,,,,,,,,,,,,,,,,,,,,,,,,,,,,,,,,,,,,,,,,,,,,,,,,,,,,11.226856000022963,None,11.226856000022963,None,None,None,None,,,,,,,,,,,,,,,,,,,,,,,,,,,,,,,,,,,,,,,,,,,,,,,,,,,,,,,,,,,,,,,,,,,,,,,,,,,,,,,,,,,,,,001,2020_Feb_24_1331,so_be_u_00,3.2.4,58.75012632271013,
,,,,,,,,,,,,,,,,,,,,,,,,,,,,,,,,,,,,,,,,,,,,,,,,,,,,,,,,,,,1,1.9405704999808222,11.226856000022963,None,,,,,,,,,,,,,,,,,,,,,,,,,,,,,,,,,,,,,,,,,,,,,,,,,,,,,,,,,,,,,,,,,,,,,,,,,,,,,,,,,,001,2020_Feb_24_1331,so_be_u_00,3.2.4,58.75012632271013,
,,,,,,,,,,0,0,0,0,,,,,,,,,,,,,,,,,,,,,,,,,,,,,,,,,,,,,,,,,,,,,,,,,,13.184113800001796,None,13.184113800001796,14.189522900036536,14.155172800004948,14.666025999991689,14.666025999991689,15.177838000003248,15.16053130000364,15.67187850002665,,,,,,,,,,,,,,,,,,,,,,,,,,,,,,,,,,,,,,,,,,,,,,,,,,,,,,,,,,,,,,,,,,,,,,,,001,2020_Feb_24_1331,so_be_u_00,3.2.4,58.75012632271013,
,,,,,,,,,,,,,,,,,,,,,,,,,,,,,,,,,,,,,,,,,,,,,,,,,,,,,,,,,,,,,,,,,,,,,,,,,15.688453800044954,None,15.859301700023934,16.16617410001345,16.16617410001345,16.37085720000323,16.37085720000323,16.458032499998808,16.458032499998808,16.60934140003519,16.60934140003519,16.76232280000113,16.76232280000113,16.915374600037467,16.915374600037467,17.017584200017154,17.017584200017154,17.511686300043948,17.511686300043948,18.021621700027026,18.021621700027026,18.53219470003387,18.515184800024144,19.024994000035804,19.008397600031458,19.161936399992555,19.723912200017367,None,19.91123880003579,None,None,None,None,,,,,,,,,,,,,,,,,,,,,,,,,,,,,,,,,,,,,,,001,2020_Feb_24_1331,so_be_u_00,3.2.4,58.75012632271013,
,,,,,,,,,,,,,,,,,,,,,,,,,,,,,,,,,,,,,,,,,,,,,,,,,,,,,,,,,,,,,,,,,,,,,,,,,,,,,,,,,,,,,,,,,,,,,,,,,,,,,,,,,,1,1.7754497000132687,19.723912200017367,None,,,,,,,,,,,,,,,,,,,,,,,,,,,,,,,,,,,001,2020_Feb_24_1331,so_be_u_00,3.2.4,58.75012632271013,
Paul,images/avatar1.jpg,reciprocate,1,1,,,,,,,,,,0,0,0,0,0,0,0,0,,,,,,,,,,,,,,,,,,,,,,,,,,,,,,,,,,,,,,,,,,,,,,,,,,,,,,,,,,,,,,,,,,,,,,,,,,,,,,,,,,,,,,,,,21.702587600040715,None,21.702587600040715,None,21.702587600040715,None,6,1.08,"[('5', 0.0), ('6', 0.738), ('6', 1.079)]",0.0036987000494264066,None,22.77675530000124,None,6,6,0,23.305698000011034,None,23.305698000011034,None,None,23.305698000011034,None,25.28073580004275,None,25.450815199990757,25.96174699999392,,,,,,,,001,2020_Feb_24_1331,so_be_u_00,3.2.4,58.75012632271013,
Paul,images/avatar1.jpg,reciprocate,1,1,1,How much do you like Paul?,not at all,very much,1 2 3 4 5 6 7,,,,,0,0,0,0,,,,,0,0,0,0,,,,,,,,,,,,,,,,,,,,,,,,,,,,,,,,,,,,,,,,,,,,,,,,,,,,,,,,,,,,,,,,,,,,,,,,,,,,,,,,,,,,,,,,,,,,,,,,,,,,,,,,,,,,,,,,26.250665900006425,None,3,3.654,0.011338459968101233,None,,001,2020_Feb_24_1331,so_be_u_00,3.2.4,58.75012632271013,
Paul,images/avatar1.jpg,reciprocate,1,1,2,How much do you want to continue playing with Paul?,not at all,very much,1 2 3 4 5 6 7,,,,,0,0,0,0,,,,,0,1,1,1,,,,,,,,,,,,,,,,,,,,,,,,,,,,,,,,,,,,,,,,,,,,,,,,,,,,,,,,,,,,,,,,,,,,,,,,,,,,,,,,,,,,,,,,,,,,,,,,,,,,,,,,,,,,,,,,29.946936100022867,None,5,1.752,0.014933219994418323,None,,001,2020_Feb_24_1331,so_be_u_00,3.2.4,58.75012632271013,
Paul,images/avatar1.jpg,reciprocate,1,1,3,How much do you like Lukas?,not at all,very much,1 2 3 4 5 6 7,,,,,0,0,0,0,,,,,0,2,2,2,,,,,,,,,,,,,,,,,,,,,,,,,,,,,,,,,,,,,,,,,,,,,,,,,,,,,,,,,,,,,,,,,,,,,,,,,,,,,,,,,,,,,,,,,,,,,,,,,,,,,,,,,,,,,,,,31.748026799992658,None,5,0.869,0.01633362000575289,None,,001,2020_Feb_24_1331,so_be_u_00,3.2.4,58.75012632271013,
Paul,images/avatar1.jpg,reciprocate,1,1,4,How much do you want to continue playing with Lukas?,not at all,very much,1 2 3 4 5 6 7,,,,,0,0,0,0,,,,,0,3,3,3,,,,,,,,,,,,,,,,,,,,,,,,,,,,,,,,,,,,,,,,,,,,,,,,,,,,,,,,,,,,,,,,,,,,,,,,,,,,,,,,,,,,,,,,,,,,,,,,,,,,,,,,,,,,,,,,32.66640660003759,None,5,1.142,0.01681831997120753,None,,001,2020_Feb_24_1331,so_be_u_00,3.2.4,58.75012632271013,
Paul,images/avatar1.jpg,reciprocate,1,1,5,How do you feel?,negative,positive,1 2 3 4 5 6 7,,,,,0,0,0,0,,,,,0,4,4,4,,,,,,,,,,,,,,,,,,,,,,,,,,,,,,,,,,,,,,,,,,,,,,,,,,,,,,,,,,,,,,,,,,,,,,,,,,,,,,,,,,,,,,,,,,,,,,,,,,,,,,,,,,,,,,,,33.85669970000163,None,5,0.689,0.004736280010547489,None,,001,2020_Feb_24_1331,so_be_u_00,3.2.4,58.75012632271013,
Paul,images/avatar1.jpg,reciprocate,1,1,6,How activated are you right now?,low,high,1 2 3 4 5 6 7,,,,,0,0,0,0,,,,,0,5,5,5,,,,,,,,,,,,,,,,,,,,,,,,,,,,,,,,,,,,,,,,,,,,,,,,,,,,,,,,,,,,,,,,,,,,,,,,,,,,,,,,,,,,,,,,,,,,,,,,,,,,,,,,,,,,,,,,34.589308199996594,None,5,0.706,0.005749579984694719,None,,001,2020_Feb_24_1331,so_be_u_00,3.2.4,58.75012632271013,
Paul,images/avatar1.jpg,reciprocate,1,1,,,,,,,,,,0,0,0,0,,,,,,,,,0,0,0,0,,,,,,,,,,,,,,,,,,,,,,,,,,,,,,,,,,,,,,,,,,,,,,,,,,,,,,,,,,,,,,,,,,,,,,,,,,,,,,,,,,,,,,,,,,,,35.304209500027355,None,,,,,,,,,,,,,,,,,,,,,,001,2020_Feb_24_1331,so_be_u_00,3.2.4,58.75012632271013,
Paul,images/avatar1.jpg,reciprocate,1,1,,,,,,,,,,0,0,0,0,,,,,,,,,1,0,1,0,,,,,,,,,,,,,,,,,,,,,,,,,,,,,,,,,,,,,,,,,,,,,,,,,,,,,,,,,,,,,,,,,,,,,,,,,,,,,,,,,,,,,,,,,,,,35.814385600038804,None,,,,,,,,,,,,,,,,,,,,,,001,2020_Feb_24_1331,so_be_u_00,3.2.4,58.75012632271013,
Paul,images/avatar1.jpg,reciprocate,1,1,,,,,,,,,,0,0,0,0,,,,,,,,,2,0,2,0,,,,,,,,,,,,,,,,,,,,,,,,,,,,,,,,,,,,,,,,,,,,,,,,,,,,,,,,,,,,,,,,,,,,,,,,,,,,,,,,,,,,,,,,,,,,36.3073498000158,None,,,,,,,,,,,,,,,,,,,,,,001,2020_Feb_24_1331,so_be_u_00,3.2.4,58.75012632271013,
Paul,images/avatar1.jpg,reciprocate,1,1,,,,,,,,,,0,0,0,0,,,,,,,,,3,0,3,0,,,,,,,,,,,,,,,,,,,,,,,,,,,,,,,,,,,,,,,,,,,,,,,,,,,,,,,,,,,,,,,,,,,,,,,,,,,,,,,,,,,,,,,,,,,,36.82005959999515,None,,,,,,,,,,,,,,,,,,,,,,001,2020_Feb_24_1331,so_be_u_00,3.2.4,58.75012632271013,
Paul,images/avatar1.jpg,reciprocate,1,1,,,,,,,,,,0,0,0,0,,,,,,,,,,,,,,,,,,,,,,,,,,,,,,,,,,,,,,,,,,,,,,,,,,,,,,,,,,,,,,,,,,,,,,,,,,,,,,,,,,,,,,,,,,,,,,,,,,,,,,,,,,,,,,,,,,,,37.31119189999299,None,37.481334800017066,37.994964300014544,,,,,,,,001,2020_Feb_24_1331,so_be_u_00,3.2.4,58.75012632271013,
Paul,images/avatar1.jpg,reciprocate,1,1,,,,,,,,,,1,0,1,0,0,0,0,0,,,,,,,,,,,,,,,,,,,,,,,,,,,,,,,,,,,,,,,,,,,,,,,,,,,,,,,,,,,,,,,,,,,,,,,,,,,,,,,,,,,,,,,,,38.30569720000494,None,38.30569720000494,None,38.30569720000494,None,6,0.906,"[('5', 0.0), ('6', 0.696), ('6', 0.906)]",0.013162640039809048,None,39.22292289999314,None,12,12,0,39.73153769999044,None,39.73153769999044,None,None,39.73153769999044,None,41.74218220001785,None,41.91218020004453,42.423600600042846,,,,,,,,001,2020_Feb_24_1331,so_be_u_00,3.2.4,58.75012632271013,
Paul,images/avatar1.jpg,reciprocate,1,1,1,How much do you like Paul?,not at all,very much,1 2 3 4 5 6 7,,,,,1,0,1,0,,,,,0,0,0,0,,,,,,,,,,,,,,,,,,,,,,,,,,,,,,,,,,,,,,,,,,,,,,,,,,,,,,,,,,,,,,,,,,,,,,,,,,,,,,,,,,,,,,,,,,,,,,,,,,,,,,,,,,,,,,,,42.679266899998765,None,5,2.339,0.005530819995328784,None,,001,2020_Feb_24_1331,so_be_u_00,3.2.4,58.75012632271013,
Paul,images/avatar1.jpg,reciprocate,1,1,2,How much do you want to continue playing with Paul?,not at all,very much,1 2 3 4 5 6 7,,,,,1,0,1,0,,,,,0,1,1,1,,,,,,,,,,,,,,,,,,,,,,,,,,,,,,,,,,,,,,,,,,,,,,,,,,,,,,,,,,,,,,,,,,,,,,,,,,,,,,,,,,,,,,,,,,,,,,,,,,,,,,,,,,,,,,,,45.0644789999933,None,4,0.545,0.015832820034120232,None,,001,2020_Feb_24_1331,so_be_u_00,3.2.4,58.75012632271013,
Paul,images/avatar1.jpg,reciprocate,1,1,3,How much do you like Lukas?,not at all,very much,1 2 3 4 5 6 7,,,,,1,0,1,0,,,,,0,2,2,2,,,,,,,,,,,,,,,,,,,,,,,,,,,,,,,,,,,,,,,,,,,,,,,,,,,,,,,,,,,,,,,,,,,,,,,,,,,,,,,,,,,,,,,,,,,,,,,,,,,,,,,,,,,,,,,,45.657874900032766,None,4,0.634,0.002443480014335364,None,,001,2020_Feb_24_1331,so_be_u_00,3.2.4,58.75012632271013,
Paul,images/avatar1.jpg,reciprocate,1,1,4,How much do you want to continue playing with Lukas?,not at all,very much,1 2 3 4 5 6 7,,,,,1,0,1,0,,,,,0,3,3,3,,,,,,,,,,,,,,,,,,,,,,,,,,,,,,,,,,,,,,,,,,,,,,,,,,,,,,,,,,,,,,,,,,,,,,,,,,,,,,,,,,,,,,,,,,,,,,,,,,,,,,,,,,,,,,,,46.340229300025385,None,5,1.074,0.016693020006641746,None,,001,2020_Feb_24_1331,so_be_u_00,3.2.4,58.75012632271013,
Paul,images/avatar1.jpg,reciprocate,1,1,5,How do you feel?,negative,positive,1 2 3 4 5 6 7,,,,,1,0,1,0,,,,,0,4,4,4,,,,,,,,,,,,,,,,,,,,,,,,,,,,,,,,,,,,,,,,,,,,,,,,,,,,,,,,,,,,,,,,,,,,,,,,,,,,,,,,,,,,,,,,,,,,,,,,,,,,,,,,,,,,,,,,47.46095350000542,None,4,0.707,0.006029680022038519,None,,001,2020_Feb_24_1331,so_be_u_00,3.2.4,58.75012632271013,
Paul,images/avatar1.jpg,reciprocate,1,1,6,How activated are you right now?,low,high,1 2 3 4 5 6 7,,,,,1,0,1,0,,,,,0,5,5,5,,,,,,,,,,,,,,,,,,,,,,,,,,,,,,,,,,,,,,,,,,,,,,,,,,,,,,,,,,,,,,,,,,,,,,,,,,,,,,,,,,,,,,,,,,,,,,,,,,,,,,,,,,,,,,,,48.21071740001207,None,4,1.012,0.003763280052226037,None,,001,2020_Feb_24_1331,so_be_u_00,3.2.4,58.75012632271013,
Paul,images/avatar1.jpg,reciprocate,1,1,,,,,,,,,,1,0,1,0,,,,,,,,,0,0,0,0,,,,,,,,,,,,,,,,,,,,,,,,,,,,,,,,,,,,,,,,,,,,,,,,,,,,,,,,,,,,,,,,,,,,,,,,,,,,,,,,,,,,,,,,,,,,49.23276199999964,None,,,,,,,,,,,,,,,,,,,,,,001,2020_Feb_24_1331,so_be_u_00,3.2.4,58.75012632271013,
Paul,images/avatar1.jpg,reciprocate,1,1,,,,,,,,,,1,0,1,0,,,,,,,,,1,0,1,0,,,,,,,,,,,,,,,,,,,,,,,,,,,,,,,,,,,,,,,,,,,,,,,,,,,,,,,,,,,,,,,,,,,,,,,,,,,,,,,,,,,,,,,,,,,,49.74065510003129,None,,,,,,,,,,,,,,,,,,,,,,001,2020_Feb_24_1331,so_be_u_00,3.2.4,58.75012632271013,
Paul,images/avatar1.jpg,reciprocate,1,1,,,,,,,,,,1,0,1,0,,,,,,,,,2,0,2,0,,,,,,,,,,,,,,,,,,,,,,,,,,,,,,,,,,,,,,,,,,,,,,,,,,,,,,,,,,,,,,,,,,,,,,,,,,,,,,,,,,,,,,,,,,,,50.23442819999764,None,,,,,,,,,,,,,,,,,,,,,,001,2020_Feb_24_1331,so_be_u_00,3.2.4,58.75012632271013,
Paul,images/avatar1.jpg,reciprocate,1,1,,,,,,,,,,1,0,1,0,,,,,,,,,3,0,3,0,,,,,,,,,,,,,,,,,,,,,,,,,,,,,,,,,,,,,,,,,,,,,,,,,,,,,,,,,,,,,,,,,,,,,,,,,,,,,,,,,,,,,,,,,,,,50.74785670003621,None,,,,,,,,,,,,,,,,,,,,,,001,2020_Feb_24_1331,so_be_u_00,3.2.4,58.75012632271013,
Paul,images/avatar1.jpg,reciprocate,1,1,,,,,,,,,,1,0,1,0,,,,,,,,,,,,,,,,,,,,,,,,,,,,,,,,,,,,,,,,,,,,,,,,,,,,,,,,,,,,,,,,,,,,,,,,,,,,,,,,,,,,,,,,,,,,,,,,,,,,,,,,,,,,,,,,,,,,51.240083100041375,None,51.410229000030085,51.921782099991105,,,,,,,,001,2020_Feb_24_1331,so_be_u_00,3.2.4,58.75012632271013,
